participant_id,trial,stimulus_number,object_name,category,presentation_time,is_question_trial,question_category,question_text,answer,correct_answer,correct,timed_out,response_time
kini,1,26,Hummingbird,BIRD,2026-01-30 02:01:28.388909,False,,,,,,,
kini,2,52,Bee,INSECT,2026-01-30 02:01:30.020908,False,,,,,,,
kini,3,30,Penguin,BIRD,2026-01-30 02:01:31.549339,False,,,,,,,
kini,4,31,Bagel,FOOD,2026-01-30 02:01:33.074842,False,,,,,,,
kini,5,3,Camel,BIG_ANIMAL,2026-01-30 02:01:34.729467,False,,,,,,,
kini,6,63,Dog,SMALL_ANIMAL,2026-01-30 02:01:36.309280,False,,,,,,,
kini,7,53,Beetle,INSECT,2026-01-30 02:01:37.851935,False,,,,,,,
kini,8,32,Burrito,FOOD,2026-01-30 02:01:39.491281,False,,,,,,,
kini,9,84,Basil,VEGETABLE,2026-01-30 02:01:41.061996,False,,,,,,,
kini,10,92,Bike,VEHICLE,2026-01-30 02:01:42.947004,True,VEHICLE,Was the last object a vehicle?,True,True,True,False,3.0095001249574125
kini,11,15,Coat_rack,BIG_OBJECT,2026-01-30 02:01:47.903516,False,,,,,,,
kini,12,24,Goose,BIRD,2026-01-30 02:01:49.444346,False,,,,,,,
kini,13,27,Owl,BIRD,2026-01-30 02:01:50.980172,False,,,,,,,
kini,14,100,Van,VEHICLE,2026-01-30 02:01:52.504732,False,,,,,,,
kini,15,37,Pasta,FOOD,2026-01-30 02:01:54.086522,False,,,,,,,
kini,16,50,Watermelon,FRUIT,2026-01-30 02:01:55.624791,False,,,,,,,
kini,17,57,Fly,INSECT,2026-01-30 02:01:57.175479,False,,,,,,,
kini,18,41,Apple,FRUIT,2026-01-30 02:01:58.715779,False,,,,,,,
kini,19,99,Jetski,VEHICLE,2026-01-30 02:02:00.262492,False,,,,,,,
kini,20,97,Helicopter,VEHICLE,2026-01-30 02:02:01.799381,True,VEHICLE,Was the last object a vehicle?,TIMEOUT,True,,True,10.0
kini,21,21,Chicken,BIRD,2026-01-30 02:02:15.529740,False,,,,,,,
kini,22,56,Caterpillar,INSECT,2026-01-30 02:02:17.327050,False,,,,,,,
kini,23,60,Wasp,INSECT,2026-01-30 02:02:18.916113,False,,,,,,,
kini,24,65,Groundhog,SMALL_ANIMAL,2026-01-30 02:02:20.504907,False,,,,,,,
kini,25,38,Pie,FOOD,2026-01-30 02:02:22.115218,False,,,,,,,
kini,26,80,Lamp,SMALL_OBJECT,2026-01-30 02:02:23.646639,False,,,,,,,
kini,27,58,Mosquito,INSECT,2026-01-30 02:02:25.189671,False,,,,,,,
kini,28,79,Key,SMALL_OBJECT,2026-01-30 02:02:26.757765,False,,,,,,,
kini,29,20,Phonebooth,BIG_OBJECT,2026-01-30 02:02:28.352539,False,,,,,,,
kini,30,49,Strawberry,FRUIT,2026-01-30 02:02:29.919196,True,FRUIT,Was the last object a fruit?,TIMEOUT,True,,True,10.0
kini,31,1,Alligator,BIG_ANIMAL,2026-01-30 02:02:45.479593,False,,,,,,,
kini,32,83,Avocado,VEGETABLE,2026-01-30 02:02:47.503028,False,,,,,,,
kini,33,91,Airplane,VEHICLE,2026-01-30 02:02:49.801103,False,,,,,,,
kini,34,59,Moth,INSECT,2026-01-30 02:02:51.765618,False,,,,,,,
kini,35,93,Boat,VEHICLE,2026-01-30 02:02:53.361387,False,,,,,,,
kini,36,94,Bus,VEHICLE,2026-01-30 02:02:54.973008,False,,,,,,,
kini,37,2,Alpaca,BIG_ANIMAL,2026-01-30 02:02:58.546382,False,,,,,,,
kini,38,12,Bench,BIG_OBJECT,2026-01-30 02:03:00.657027,False,,,,,,,
kini,39,8,Horse,BIG_ANIMAL,2026-01-30 02:03:02.930202,False,,,,,,,
kini,40,54,Bug,INSECT,2026-01-30 02:03:04.865763,True,INSECT,Was the last object an insect?,TIMEOUT,True,,True,10.0
kini,41,71,Balloon,SMALL_OBJECT,2026-01-30 02:03:19.298295,False,,,,,,,
kini,42,96,Cruise_ship,VEHICLE,2026-01-30 02:03:21.137132,False,,,,,,,
kini,43,23,Flamingo,BIRD,2026-01-30 02:03:22.700845,False,,,,,,,
kini,44,22,Duck,BIRD,2026-01-30 02:03:24.645409,False,,,,,,,
kini,45,11,Barrel,BIG_OBJECT,2026-01-30 02:03:26.202794,False,,,,,,,
kini,46,47,Peach,FRUIT,2026-01-30 02:03:28.011990,False,,,,,,,
kini,47,9,Walrus,BIG_ANIMAL,2026-01-30 02:03:29.577911,False,,,,,,,
kini,48,46,Orange,FRUIT,2026-01-30 02:03:31.201803,False,,,,,,,
kini,49,77,Glasses,SMALL_OBJECT,2026-01-30 02:03:32.816626,False,,,,,,,
kini,50,75,Envelope,SMALL_OBJECT,2026-01-30 02:03:34.396977,True,SMALL_OBJECT,Was the last object a small object?,TIMEOUT,True,,True,10.0
kini,51,33,Cake,FOOD,2026-01-30 02:03:53.312244,False,,,,,,,
kini,52,78,Globe,SMALL_OBJECT,2026-01-30 02:03:55.084654,False,,,,,,,
kini,53,48,Pineapple,FRUIT,2026-01-30 02:03:58.454702,False,,,,,,,
kini,54,98,Jeep,VEHICLE,2026-01-30 02:04:00.784363,False,,,,,,,
kini,55,10,Zebra,BIG_ANIMAL,2026-01-30 02:04:02.499462,False,,,,,,,
kini,56,51,Ants,INSECT,2026-01-30 02:04:06.858722,False,,,,,,,
kini,57,64,Frog,SMALL_ANIMAL,2026-01-30 02:04:09.265489,False,,,,,,,
kini,58,42,Banana,FRUIT,2026-01-30 02:04:11.178159,False,,,,,,,
kini,59,85,Bean,VEGETABLE,2026-01-30 02:04:14.177750,False,,,,,,,
kini,60,55,Butterfly,INSECT,2026-01-30 02:04:15.986615,True,INSECT,Was the last object an insect?,TIMEOUT,True,,True,10.0
kini,61,89,Pepper,VEGETABLE,2026-01-30 02:04:31.331859,False,,,,,,,
kini,62,36,Ice_cream,FOOD,2026-01-30 02:04:33.871004,False,,,,,,,
kini,63,19,Mailbox,BIG_OBJECT,2026-01-30 02:04:35.577126,False,,,,,,,
kini,64,76,Football,SMALL_OBJECT,2026-01-30 02:04:37.557330,False,,,,,,,
kini,65,68,Monkey,SMALL_ANIMAL,2026-01-30 02:04:39.277774,False,,,,,,,
kini,66,62,Cat,SMALL_ANIMAL,2026-01-30 02:04:41.719455,False,,,,,,,
kini,67,67,Koala,SMALL_ANIMAL,2026-01-30 02:04:43.340095,False,,,,,,,
kini,68,66,Iguana,SMALL_ANIMAL,2026-01-30 02:04:44.954972,False,,,,,,,
kini,69,40,Soup,FOOD,2026-01-30 02:04:46.686320,False,,,,,,,
kini,70,69,Mouse,SMALL_ANIMAL,2026-01-30 02:04:48.351274,True,SMALL_ANIMAL,Was the last object a small animal?,TIMEOUT,True,,True,10.0
kini,71,5,Elephant,BIG_ANIMAL,2026-01-30 02:05:02.652251,False,,,,,,,
kini,72,90,Squash,VEGETABLE,2026-01-30 02:05:04.253254,False,,,,,,,
kini,73,44,Coconut,FRUIT,2026-01-30 02:05:05.856458,False,,,,,,,
kini,74,95,Car,VEHICLE,2026-01-30 02:05:07.492491,False,,,,,,,
kini,75,4,Cheetah,BIG_ANIMAL,2026-01-30 02:05:09.086630,False,,,,,,,
kini,76,39,Pizza,FOOD,2026-01-30 02:05:10.683676,False,,,,,,,
kini,77,28,Parrot,BIRD,2026-01-30 02:05:12.232420,False,,,,,,,
kini,78,88,Kale,VEGETABLE,2026-01-30 02:05:13.786779,False,,,,,,,
kini,79,73,Blender,SMALL_OBJECT,2026-01-30 02:05:15.414074,False,,,,,,,
kini,80,70,Otter,SMALL_ANIMAL,2026-01-30 02:05:16.993618,True,SMALL_ANIMAL,Was the last object a small animal?,TIMEOUT,True,,True,10.0
kini,81,16,Couch,BIG_OBJECT,2026-01-30 02:05:31.014194,False,,,,,,,
kini,82,6,Giraffe,BIG_ANIMAL,2026-01-30 02:05:33.224114,False,,,,,,,
kini,83,72,Basket,SMALL_OBJECT,2026-01-30 02:05:34.928631,False,,,,,,,
kini,84,29,Peacock,BIRD,2026-01-30 02:05:36.612926,False,,,,,,,
kini,85,43,Blueberry,FRUIT,2026-01-30 02:05:38.260585,False,,,,,,,
kini,86,86,Bok_choy,VEGETABLE,2026-01-30 02:05:39.984832,False,,,,,,,
kini,87,87,Carrot,VEGETABLE,2026-01-30 02:05:41.518854,False,,,,,,,
kini,88,81,Arugula,VEGETABLE,2026-01-30 02:05:43.060708,False,,,,,,,
kini,89,45,Mulberry,FRUIT,2026-01-30 02:05:44.644635,False,,,,,,,
kini,90,61,Beaver,SMALL_ANIMAL,2026-01-30 02:05:46.178150,True,SMALL_ANIMAL,Was the last object a small animal?,TIMEOUT,True,,True,10.0
kini,91,34,Donut,FOOD,2026-01-30 02:05:59.850356,False,,,,,,,
kini,92,13,Chair,BIG_OBJECT,2026-01-30 02:06:01.380710,False,,,,,,,
kini,93,25,Hawk,BIRD,2026-01-30 02:06:02.913303,False,,,,,,,
kini,94,7,Hippopotamus,BIG_ANIMAL,2026-01-30 02:06:04.440839,False,,,,,,,
kini,95,14,Chandelier,BIG_OBJECT,2026-01-30 02:06:05.970627,False,,,,,,,
kini,96,82,Asparagus,VEGETABLE,2026-01-30 02:06:07.509136,False,,,,,,,
kini,97,18,Hot_tub,BIG_OBJECT,2026-01-30 02:06:09.064221,False,,,,,,,
kini,98,17,Filing_cabinet,BIG_OBJECT,2026-01-30 02:06:10.588923,False,,,,,,,
kini,99,35,Hotdog,FOOD,2026-01-30 02:06:12.117389,False,,,,,,,
kini,100,74,Camera,SMALL_OBJECT,2026-01-30 02:06:14.485858,True,SMALL_OBJECT,Was the last object a small object?,TIMEOUT,True,,True,10.0
