participant_id,trial,stimulus_number,object_name,category,stimulus_type,is_lure,image_path,presentation_time,fixation_onset_time,fixation_offset_time,fixation_duration,image_onset_time,image_offset_time,is_question_trial,question_category,question_text,question_onset_time,answer,correct_answer,correct,timed_out,response_time,answer_click_time,feedback_onset_time,feedback_offset_time,feedback_duration
ZELIN,1,27,Owl,BIRD,Lure,True,STIMULI\BIRD\Owl\Lure_027.jpg,2026-02-10 14:06:05.531568,1770761165.203326,1770761165.531568,0.31467755240754713,1770761165.5775406,1770761166.0791574,False,,,,,,,,,,,,
ZELIN,2,58,Mosquito,INSECT,Lure,True,STIMULI\INSECT\Mosquito\Lure_058.jpg,2026-02-10 14:06:06.093036,1770761166.0930362,1770761166.3857164,0.27891587913919125,1770761166.4951615,1770761166.9953647,False,,,,,,,,,,,,
ZELIN,3,41,Apple,FRUIT,Lure,True,STIMULI\FRUIT\Apple\Lure_041.jpg,2026-02-10 14:06:06.995364,1770761166.9953647,1770761167.5914016,0.5840748189138447,1770761167.6895273,1770761168.1892362,False,,,,,,,,,,,,
ZELIN,4,98,Jeep,VEHICLE,Lure,True,STIMULI\VEHICLE\Jeep\Lure_098.jpg,2026-02-10 14:06:08.190237,1770761168.1902378,1770761168.6087816,0.40074468058046325,1770761168.6392581,1770761169.1402025,False,,,,,,,,,,,,
ZELIN,5,77,Glasses,SMALL_OBJECT,Lure,True,STIMULI\smallobject\Glasses\Lure_077.jpg,2026-02-10 14:06:09.140202,1770761169.1402025,1770761169.6507447,0.4890868877997165,1770761169.706635,1770761170.2086873,False,,,,,,,,,,,,
ZELIN,6,28,Parrot,BIRD,Image,False,STIMULI\BIRD\Parrot\Image_028.jpg,2026-02-10 14:06:10.208687,1770761170.2086873,1770761170.4841468,0.2622591790060825,1770761170.5228837,1770761171.024226,False,,,,,,,,,,,,
ZELIN,7,17,filingcabinet,BIG_OBJECT,Image,False,STIMULI\bigobject\filingcabinet\Image_017.jpg,2026-02-10 14:06:11.024748,1770761171.024748,1770761171.5329006,0.4914913712137414,1770761171.5731514,1770761172.0741346,False,,,,,,,,,,,,
ZELIN,8,70,Otter,SMALL_ANIMAL,Image,False,STIMULI\smallanimal\Otter\Image_070.jpg,2026-02-10 14:06:12.074134,1770761172.0741346,1770761172.4868796,0.39278966609314475,1770761172.6272807,1770761173.1280346,False,,,,,,,,,,,,
ZELIN,9,37,Pasta,FOOD,Lure,True,STIMULI\FOOD\Pasta\Lure_037.jpg,2026-02-10 14:06:13.128034,1770761173.1280346,1770761173.4672086,0.3262827331553081,1770761173.5400395,1770761174.0402102,False,,,,,,,,,,,,
ZELIN,10,48,Pineapple,FRUIT,Lure,True,STIMULI\FRUIT\Pineapple\Lure_048.jpg,2026-02-10 14:06:14.040210,1770761174.0402102,1770761174.5182383,0.4605186675793488,1770761174.7331042,1770761175.2343707,True,BIG_ANIMAL,Was the last object a big animal?,1770761175.2343707,False,False,True,False,5.0350756999105215,1770761180.3419926,1770761180.6485147,1770761182.2075858,1.5590710639953613
ZELIN,11,53,Beetle,INSECT,Lure,True,STIMULI\INSECT\Beetle\Lure_053.jpg,2026-02-10 14:06:22.207585,1770761182.2075858,1770761182.5876734,0.3623577772849749,1770761182.7408538,1770761183.241477,False,,,,,,,,,,,,
ZELIN,12,15,coatrack,BIG_OBJECT,Lure,True,STIMULI\bigobject\coatrack\Lure_015.jpg,2026-02-10 14:06:23.241986,1770761183.2419863,1770761183.7916515,0.5340159316506544,1770761183.8561056,1770761184.357397,False,,,,,,,,,,,,
ZELIN,13,59,Moth,INSECT,Image,False,STIMULI\INSECT\Moth\Image_059.jpg,2026-02-10 14:06:24.357908,1770761184.3579085,1770761184.831624,0.4540422417637892,1770761184.8731525,1770761185.3745906,False,,,,,,,,,,,,
ZELIN,14,35,Hotdog,FOOD,Image,False,STIMULI\FOOD\Hotdog\Image_035.jpg,2026-02-10 14:06:25.374590,1770761185.3745906,1770761185.8545473,0.4617449182746029,1770761186.0567305,1770761186.5584989,False,,,,,,,,,,,,
ZELIN,15,63,Dog,SMALL_ANIMAL,Lure,True,STIMULI\smallanimal\Dog\Lure_063.jpg,2026-02-10 14:06:26.558498,1770761186.5584989,1770761187.1921883,0.6191902414401802,1770761187.2049813,1770761187.7058802,False,,,,,,,,,,,,
ZELIN,16,8,Horse,BIG_ANIMAL,Lure,True,STIMULI\biganimal\Horse\Lure_008.jpg,2026-02-10 14:06:27.705880,1770761187.7058802,1770761188.3787177,0.6549788956422498,1770761188.423657,1770761188.9249585,False,,,,,,,,,,,,
ZELIN,17,4,Cheetah,BIG_ANIMAL,Image,False,STIMULI\biganimal\Cheetah\Image_004.jpg,2026-02-10 14:06:28.924958,1770761188.9258864,1770761189.4590924,0.5144867638934636,1770761189.490093,1770761189.9906957,False,,,,,,,,,,,,
ZELIN,18,66,Iguana,SMALL_ANIMAL,Image,False,STIMULI\smallanimal\Iguana\Image_066.jpg,2026-02-10 14:06:29.991207,1770761189.9912074,1770761190.2899203,0.2822095735139837,1770761190.3580372,1770761190.8595521,False,,,,,,,,,,,,
ZELIN,19,88,Kale,VEGETABLE,Image,False,STIMULI\VEGETABLE\Kale\Image_088.jpg,2026-02-10 14:06:30.859552,1770761190.860553,1770761191.2638083,0.3912107605539169,1770761191.3221781,1770761191.8229225,False,,,,,,,,,,,,
ZELIN,20,14,Chandelier,BIG_OBJECT,Image,False,STIMULI\bigobject\Chandelier\Image_014.jpg,2026-02-10 14:06:31.823434,1770761191.8234339,1770761192.3560667,0.5060621376405474,1770761192.405493,1770761192.907178,True,BIG_OBJECT,Was the last object a big object?,1770761192.907178,True,True,True,False,3.101600799942389,1770761196.1241405,1770761196.4340603,1770761197.9565794,1.5225191116333008
ZELIN,21,18,hottub,BIG_OBJECT,Image,False,STIMULI\bigobject\hottub\Image_018.jpg,2026-02-10 14:06:37.956579,1770761197.9565794,1770761198.4196825,0.4450808817982211,1770761198.4729576,1770761198.9740298,False,,,,,,,,,,,,
ZELIN,22,45,Mulberry,FRUIT,Lure,True,STIMULI\FRUIT\Mulberry\Lure_045.jpg,2026-02-10 14:06:38.974537,1770761198.9745376,1770761199.316779,0.3239943377765405,1770761199.3561995,1770761199.8569372,False,,,,,,,,,,,,
ZELIN,23,6,Giraffe,BIG_ANIMAL,Image,False,STIMULI\biganimal\Giraffe\Image_006.jpg,2026-02-10 14:06:39.856937,1770761199.8579304,1770761200.1950662,0.3198951945006241,1770761200.2558582,1770761200.7567692,False,,,,,,,,,,,,
ZELIN,24,23,Flamingo,BIRD,Lure,True,STIMULI\BIRD\Flamingo\Lure_023.jpg,2026-02-10 14:06:40.757281,1770761200.7572813,1770761201.3860965,0.6083523735277763,1770761201.4394934,1770761201.9407432,False,,,,,,,,,,,,
ZELIN,25,62,Cat,SMALL_ANIMAL,Lure,True,STIMULI\smallanimal\Cat\Lure_062.jpg,2026-02-10 14:06:41.940743,1770761201.9407432,1770761202.5945063,0.6318979493304719,1770761202.6396086,1770761203.1403499,False,,,,,,,,,,,,
ZELIN,26,4,Cheetah,BIG_ANIMAL,Lure,True,STIMULI\biganimal\Cheetah\Lure_004.jpg,2026-02-10 14:06:43.140350,1770761203.1403499,1770761203.9020648,0.7437992377515914,1770761203.9899538,1770761204.4906912,False,,,,,,,,,,,,
ZELIN,27,85,Bean,VEGETABLE,Lure,True,STIMULI\VEGETABLE\Bean\Lure_085.jpg,2026-02-10 14:06:44.490691,1770761204.4917004,1770761205.1918557,0.6799404802907798,1770761205.256602,1770761205.7578766,False,,,,,,,,,,,,
ZELIN,28,87,Carrot,VEGETABLE,Image,False,STIMULI\VEGETABLE\Carrot\Image_087.jpg,2026-02-10 14:06:45.757876,1770761205.7578766,1770761206.3284361,0.5549990179443837,1770761206.391073,1770761206.8917277,False,,,,,,,,,,,,
ZELIN,29,46,Orange,FRUIT,Lure,True,STIMULI\FRUIT\Orange\Lure_046.jpg,2026-02-10 14:06:46.891727,1770761206.8917277,1770761207.4850895,0.5757948211928573,1770761207.538699,1770761208.0393534,False,,,,,,,,,,,,
ZELIN,30,32,Burrito,FOOD,Lure,True,STIMULI\FOOD\Burrito\Lure_032.jpg,2026-02-10 14:06:48.039353,1770761208.040363,1770761208.7576845,0.7006368057886396,1770761208.8403876,1770761209.341416,True,FOOD,Was the last object a food?,1770761209.341416,True,True,True,False,1.6855899000074714,1770761211.1403522,1770761211.4478672,1770761212.998794,1.550926923751831
ZELIN,31,13,Chair,BIG_OBJECT,Lure,True,STIMULI\bigobject\Chair\Lure_013.jpg,2026-02-10 14:06:52.999305,1770761212.9993055,1770761213.3276813,0.31167621040223137,1770761213.4145522,1770761213.9150293,False,,,,,,,,,,,,
ZELIN,32,82,Asparagus,VEGETABLE,Image,False,STIMULI\VEGETABLE\Asparagus\Image_082.jpg,2026-02-10 14:06:53.920234,1770761213.9202347,1770761214.3674393,0.4334040830395352,1770761214.432441,1770761214.933323,False,,,,,,,,,,,,
ZELIN,33,76,Football,SMALL_OBJECT,Image,False,STIMULI\smallobject\Football\Image_076.jpg,2026-02-10 14:06:54.934324,1770761214.934324,1770761215.6377256,0.6842246191243747,1770761215.6995316,1770761216.200453,False,,,,,,,,,,,,
ZELIN,34,12,Bench,BIG_OBJECT,Image,False,STIMULI\bigobject\Bench\Image_012.jpg,2026-02-10 14:06:56.200453,1770761216.200453,1770761216.4731877,0.2575168237265016,1770761216.5819354,1770761217.0824633,False,,,,,,,,,,,,
ZELIN,35,78,Globe,SMALL_OBJECT,Lure,True,STIMULI\smallobject\Globe\Lure_078.jpg,2026-02-10 14:06:57.082463,1770761217.083463,1770761217.629889,0.5271137069359844,1770761217.6845067,1770761218.186338,False,,,,,,,,,,,,
ZELIN,36,34,Donut,FOOD,Lure,True,STIMULI\FOOD\Donut\Lure_034.jpg,2026-02-10 14:06:58.186849,1770761218.1868494,1770761218.6363676,0.4331824429854311,1770761218.698167,1770761219.1985915,False,,,,,,,,,,,,
ZELIN,37,62,Cat,SMALL_ANIMAL,Image,False,STIMULI\smallanimal\Cat\Image_062.jpg,2026-02-10 14:06:59.198591,1770761219.1985915,1770761219.542704,0.32719978520422255,1770761219.5971632,1770761220.0983372,False,,,,,,,,,,,,
ZELIN,38,93,Boat,VEHICLE,Image,False,STIMULI\VEHICLE\Boat\Image_093.jpg,2026-02-10 14:07:00.098337,1770761220.0983372,1770761220.656942,0.5405884939116146,1770761220.7153556,1770761221.2159505,False,,,,,,,,,,,,
ZELIN,39,55,Butterfly,INSECT,Image,False,STIMULI\INSECT\Butterfly\Image_055.jpg,2026-02-10 14:07:01.216466,1770761221.2164662,1770761221.4852278,0.252740954969254,1770761221.664881,1770761222.1658566,False,,,,,,,,,,,,
ZELIN,40,52,Bee,INSECT,Image,False,STIMULI\INSECT\Bee\Image_052.jpg,2026-02-10 14:07:02.165856,1770761222.1663644,1770761222.74315,0.55954474343009,1770761222.7971559,1770761223.2986276,True,SMALL_ANIMAL,Was the last object a small animal?,1770761223.2986276,True,False,False,False,1.5859552000183612,1770761224.9841774,1770761225.2921615,1770761226.8516376,1.5594761371612549
ZELIN,41,5,Elephant,BIG_ANIMAL,Lure,True,STIMULI\biganimal\Elephant\Lure_005.jpg,2026-02-10 14:07:06.851637,1770761226.852566,1770761227.3974214,0.5316322098333721,1770761227.4494598,1770761227.9501817,False,,,,,,,,,,,,
ZELIN,42,3,Camel,BIG_ANIMAL,Lure,True,STIMULI\biganimal\Camel\Lure_003.jpg,2026-02-10 14:07:07.950181,1770761227.9501817,1770761228.681475,0.713996753891242,1770761228.7642522,1770761229.2651875,False,,,,,,,,,,,,
ZELIN,43,54,Bug,INSECT,Image,False,STIMULI\INSECT\Bug\Image_054.jpg,2026-02-10 14:07:09.265187,1770761229.2651875,1770761230.0110595,0.7245855628873508,1770761230.05014,1770761230.5514982,False,,,,,,,,,,,,
ZELIN,44,53,Beetle,INSECT,Image,False,STIMULI\INSECT\Beetle\Image_053.jpg,2026-02-10 14:07:10.551498,1770761230.5514982,1770761230.9796972,0.40917835892843374,1770761231.124647,1770761231.6258924,False,,,,,,,,,,,,
ZELIN,45,30,Penguin,BIRD,Lure,True,STIMULI\BIRD\Penguin\Lure_030.jpg,2026-02-10 14:07:11.626403,1770761231.6264036,1770761232.1331494,0.4845224120331494,1770761232.1829998,1770761232.6838827,False,,,,,,,,,,,,
ZELIN,46,42,Banana,FRUIT,Lure,True,STIMULI\FRUIT\Banana\Lure_042.jpg,2026-02-10 14:07:12.684395,1770761232.684395,1770761233.1795194,0.4752887517770567,1770761233.2661133,1770761233.7677433,False,,,,,,,,,,,,
ZELIN,47,61,Beaver,SMALL_ANIMAL,Image,False,STIMULI\smallanimal\Beaver\Image_061.jpg,2026-02-10 14:07:13.768254,1770761233.7682548,1770761234.3550718,0.5724403571938121,1770761234.3979716,1770761234.899683,False,,,,,,,,,,,,
ZELIN,48,100,Van,VEHICLE,Image,False,STIMULI\VEHICLE\Van\Image_100.jpg,2026-02-10 14:07:14.899683,1770761234.899683,1770761235.1847837,0.2681003160451506,1770761235.2653217,1770761235.76648,False,,,,,,,,,,,,
ZELIN,49,79,Key,SMALL_OBJECT,Lure,True,STIMULI\smallobject\Key\Lure_079.jpg,2026-02-10 14:07:15.766480,1770761235.76648,1770761236.4705598,0.6849292166938342,1770761236.5158236,1770761237.0167975,False,,,,,,,,,,,,
ZELIN,50,27,Owl,BIRD,Image,False,STIMULI\BIRD\Owl\Image_027.jpg,2026-02-10 14:07:17.016797,1770761237.0167975,1770761237.782319,0.7486810113021236,1770761237.8149557,1770761238.3157632,True,VEHICLE,Was the last object a vehicle?,1770761238.3157632,False,False,True,False,2.2075417999876663,1770761240.6175122,1770761240.9325564,1770761242.474028,1.5414717197418213
ZELIN,51,55,Butterfly,INSECT,Lure,True,STIMULI\INSECT\Butterfly\Lure_055.jpg,2026-02-10 14:07:22.474540,1770761242.47454,1770761243.1022758,0.6112993327308628,1770761243.1726549,1770761243.6737332,False,,,,,,,,,,,,
ZELIN,52,83,Avocado,VEGETABLE,Image,False,STIMULI\VEGETABLE\Avocado\Image_083.jpg,2026-02-10 14:07:23.673733,1770761243.674891,1770761244.0305648,0.33633940924851796,1770761244.089559,1770761244.5904927,False,,,,,,,,,,,,
ZELIN,53,82,Asparagus,VEGETABLE,Lure,True,STIMULI\VEGETABLE\Asparagus\Lure_082.jpg,2026-02-10 14:07:24.591001,1770761244.5910015,1770761245.1855602,0.5777705764782419,1770761245.3741417,1770761245.8748925,False,,,,,,,,,,,,
ZELIN,54,71,Balloon,SMALL_OBJECT,Image,False,STIMULI\smallobject\Balloon\Image_071.jpg,2026-02-10 14:07:25.875404,1770761245.8754041,1770761246.4510136,0.5577832611326178,1770761246.506846,1770761247.0089805,False,,,,,,,,,,,,
ZELIN,55,18,hottub,BIG_OBJECT,Lure,True,STIMULI\bigobject\hottub\Lure_018.jpg,2026-02-10 14:07:27.008980,1770761247.009917,1770761247.7113607,0.6869645939445828,1770761247.7559874,1770761248.257774,False,,,,,,,,,,,,
ZELIN,56,71,Balloon,SMALL_OBJECT,Lure,True,STIMULI\smallobject\Balloon\Lure_071.jpg,2026-02-10 14:07:28.257774,1770761248.257774,1770761248.7192543,0.44456030930061413,1770761248.757006,1770761249.2582796,False,,,,,,,,,,,,
ZELIN,57,37,Pasta,FOOD,Image,False,STIMULI\FOOD\Pasta\Image_037.jpg,2026-02-10 14:07:29.258279,1770761249.2582796,1770761249.6320403,0.35725584960502865,1770761249.690953,1770761250.1912177,False,,,,,,,,,,,,
ZELIN,58,60,Wasp,INSECT,Lure,True,STIMULI\INSECT\Wasp\Lure_060.jpg,2026-02-10 14:07:30.191217,1770761250.1912177,1770761250.8906515,0.6831508110564128,1770761250.9888387,1770761251.4895914,False,,,,,,,,,,,,
ZELIN,59,73,Blender,SMALL_OBJECT,Lure,True,STIMULI\smallobject\Blender\Lure_073.jpg,2026-02-10 14:07:31.489591,1770761251.4895914,1770761252.0263884,0.5192143708935244,1770761252.2935107,1770761252.7964342,False,,,,,,,,,,,,
ZELIN,60,10,Zebra,BIG_ANIMAL,Image,False,STIMULI\biganimal\Zebra\Image_010.jpg,2026-02-10 14:07:32.796434,1770761252.7964342,1770761253.3100743,0.5014462381241255,1770761253.3390362,1770761253.8397968,True,FRUIT,Was the last object a fruit?,1770761253.8397968,False,False,True,False,1.5270627998979762,1770761255.4838908,1770761255.7913046,1770761257.3398447,1.5485401153564453
ZELIN,61,89,Pepper,VEGETABLE,Image,False,STIMULI\VEGETABLE\Pepper\Image_089.jpg,2026-02-10 14:07:37.340355,1770761257.3403559,1770761258.045628,0.6875540534118516,1770761258.229987,1770761258.7303326,False,,,,,,,,,,,,
ZELIN,62,73,Blender,SMALL_OBJECT,Image,False,STIMULI\smallobject\Blender\Image_073.jpg,2026-02-10 14:07:38.730844,1770761258.730844,1770761259.3578434,0.6171887383286061,1770761259.4394808,1770761259.9404252,False,,,,,,,,,,,,
ZELIN,63,14,Chandelier,BIG_OBJECT,Lure,True,STIMULI\bigobject\Chandelier\Lure_014.jpg,2026-02-10 14:07:39.940936,1770761259.9409368,1770761260.5625427,0.5999759722471288,1770761260.6974475,1770761261.200442,False,,,,,,,,,,,,
ZELIN,64,77,Glasses,SMALL_OBJECT,Image,False,STIMULI\smallobject\Glasses\Image_077.jpg,2026-02-10 14:07:41.201467,1770761261.201467,1770761261.825651,0.6015245344353876,1770761261.8726413,1770761262.3737586,False,,,,,,,,,,,,
ZELIN,65,68,Monkey,SMALL_ANIMAL,Lure,True,STIMULI\smallanimal\Monkey\Lure_068.jpg,2026-02-10 14:07:42.374270,1770761262.3742702,1770761262.9795384,0.5844373024807359,1770761263.1242442,1770761263.6290355,False,,,,,,,,,,,,
ZELIN,66,20,Phonebooth,BIG_OBJECT,Image,False,STIMULI\bigobject\Phonebooth\Image_020.jpg,2026-02-10 14:07:43.630037,1770761263.6300375,1770761264.363095,0.723335331541797,1770761264.4071774,1770761264.9074075,False,,,,,,,,,,,,
ZELIN,67,100,Van,VEHICLE,Lure,True,STIMULI\VEHICLE\Van\Lure_100.jpg,2026-02-10 14:07:44.907407,1770761264.9074075,1770761265.3793304,0.4530035355928159,1770761265.4233572,1770761265.9242551,False,,,,,,,,,,,,
ZELIN,68,17,filingcabinet,BIG_OBJECT,Lure,True,STIMULI\bigobject\filingcabinet\Lure_017.jpg,2026-02-10 14:07:45.924255,1770761265.9242551,1770761266.5650449,0.6202224895210287,1770761266.6072383,1770761267.1073406,False,,,,,,,,,,,,
ZELIN,69,29,Peacock,BIRD,Image,False,STIMULI\BIRD\Peacock\Image_029.jpg,2026-02-10 14:07:47.107340,1770761267.1073406,1770761267.5825832,0.4565052040761275,1770761267.6221585,1770761268.124121,False,,,,,,,,,,,,
ZELIN,70,9,Walrus,BIG_ANIMAL,Lure,True,STIMULI\biganimal\Walrus\Lure_009.jpg,2026-02-10 14:07:48.124632,1770761268.1246324,1770761268.4002354,0.2592012788489791,1770761268.506577,1770761269.007041,True,SMALL_ANIMAL,Was the last object a small animal?,1770761269.007041,False,False,True,False,1.8852795000420883,1770761271.00009,1770761271.3170254,1770761272.8562346,1.5392091274261475
ZELIN,71,79,Key,SMALL_OBJECT,Image,False,STIMULI\smallobject\Key\Image_079.jpg,2026-02-10 14:07:52.856746,1770761272.856747,1770761273.5111022,0.6361206824214065,1770761273.639753,1770761274.1408675,False,,,,,,,,,,,,
ZELIN,72,1,Alligator,BIG_ANIMAL,Image,False,STIMULI\biganimal\Alligator\Image_001.jpg,2026-02-10 14:07:54.140867,1770761274.1408675,1770761274.793445,0.6369691881831065,1770761274.839805,1770761275.3408618,False,,,,,,,,,,,,
ZELIN,73,36,icecream,FOOD,Image,False,STIMULI\FOOD\icecream\Image_036.jpg,2026-02-10 14:07:55.340861,1770761275.3408618,1770761275.7767932,0.41677638258924626,1770761275.8221362,1770761276.3230417,False,,,,,,,,,,,,
ZELIN,74,40,Soup,FOOD,Lure,True,STIMULI\FOOD\Soup\Lure_040.jpg,2026-02-10 14:07:56.323041,1770761276.3230417,1770761276.6851013,0.3403653377040116,1770761276.738993,1770761277.239717,False,,,,,,,,,,,,
ZELIN,75,25,Hawk,BIRD,Lure,True,STIMULI\BIRD\Hawk\Lure_025.jpg,2026-02-10 14:07:57.240228,1770761277.2402287,1770761277.9541554,0.6961442752148626,1770761278.023865,1770761278.5245676,False,,,,,,,,,,,,
ZELIN,76,80,Lamp,SMALL_OBJECT,Lure,True,STIMULI\smallobject\Lamp\Lure_080.jpg,2026-02-10 14:07:58.524567,1770761278.5245676,1770761279.1313436,0.5869798162442241,1770761279.2059786,1770761279.7071269,False,,,,,,,,,,,,
ZELIN,77,12,Bench,BIG_OBJECT,Lure,True,STIMULI\bigobject\Bench\Lure_012.jpg,2026-02-10 14:07:59.707126,1770761279.7071269,1770761280.2014763,0.47686597760670335,1770761280.2578413,1770761280.7599747,False,,,,,,,,,,,,
ZELIN,78,58,Mosquito,INSECT,Image,False,STIMULI\INSECT\Mosquito\Image_058.jpg,2026-02-10 14:08:00.759974,1770761280.7599747,1770761281.0303557,0.25387239648385423,1770761281.1226382,1770761281.6228907,False,,,,,,,,,,,,
ZELIN,79,90,Squash,VEGETABLE,Image,False,STIMULI\VEGETABLE\Squash\Image_090.jpg,2026-02-10 14:08:01.623402,1770761281.6234024,1770761282.1694574,0.5255579408555909,1770761282.2223785,1770761282.7233741,False,,,,,,,,,,,,
ZELIN,80,49,Strawberry,FRUIT,Lure,True,STIMULI\FRUIT\Strawberry\Lure_049.jpg,2026-02-10 14:08:02.723374,1770761282.7233741,1770761283.4916234,0.747778851188825,1770761283.5397944,1770761284.040881,True,INSECT,Was the last object an insect?,1770761284.040881,False,False,True,False,1.509583399980329,1770761285.6657472,1770761285.9751275,1770761287.5065844,1.5314569473266602
ZELIN,81,95,Car,VEHICLE,Image,False,STIMULI\VEHICLE\Car\Image_095.jpg,2026-02-10 14:08:07.507095,1770761287.5070958,1770761287.8273294,0.3030527723212222,1770761287.8909628,1770761288.3916943,False,,,,,,,,,,,,
ZELIN,82,98,Jeep,VEHICLE,Image,False,STIMULI\VEHICLE\Jeep\Image_098.jpg,2026-02-10 14:08:08.391694,1770761288.3916943,1770761289.1113946,0.7008640712283275,1770761289.2402198,1770761289.7407281,False,,,,,,,,,,,,
ZELIN,83,67,Koala,SMALL_ANIMAL,Lure,True,STIMULI\smallanimal\Koala\Lure_067.jpg,2026-02-10 14:08:09.740728,1770761289.7407281,1770761290.146016,0.383974458309989,1770761290.1893907,1770761290.6907988,False,,,,,,,,,,,,
ZELIN,84,13,Chair,BIG_OBJECT,Image,False,STIMULI\bigobject\Chair\Image_013.jpg,2026-02-10 14:08:10.690798,1770761290.6907988,1770761291.1294453,0.4226676792709443,1770761291.191304,1770761291.6921074,False,,,,,,,,,,,,
ZELIN,85,94,Bus,VEHICLE,Image,False,STIMULI\VEHICLE\Bus\Image_094.jpg,2026-02-10 14:08:11.692619,1770761291.692619,1770761292.0345898,0.32356598351777527,1770761292.2287385,1770761292.7302773,False,,,,,,,,,,,,
ZELIN,86,11,Barrel,BIG_OBJECT,Image,False,STIMULI\bigobject\Barrel\Image_011.jpg,2026-02-10 14:08:12.730789,1770761292.7307894,1770761293.107895,0.3670086049742448,1770761293.1747415,1770761293.675845,False,,,,,,,,,,,,
ZELIN,87,56,Caterpillar,INSECT,Image,False,STIMULI\INSECT\Caterpillar\Image_056.jpg,2026-02-10 14:08:13.676352,1770761293.6763523,1770761294.0837173,0.39290435441453325,1770761294.1928203,1770761294.693194,False,,,,,,,,,,,,
ZELIN,88,8,Horse,BIG_ANIMAL,Image,False,STIMULI\biganimal\Horse\Image_008.jpg,2026-02-10 14:08:14.693194,1770761294.693194,1770761295.2943046,0.5872459871144593,1770761295.3392453,1770761295.8405497,False,,,,,,,,,,,,
ZELIN,89,78,Globe,SMALL_OBJECT,Image,False,STIMULI\smallobject\Globe\Image_078.jpg,2026-02-10 14:08:15.841069,1770761295.8410692,1770761296.3538175,0.49705414624518707,1770761296.3890378,1770761296.8908072,False,,,,,,,,,,,,
ZELIN,90,92,Bike,VEHICLE,Lure,True,STIMULI\VEHICLE\Bike\Lure_092.jpg,2026-02-10 14:08:16.891318,1770761296.8913183,1770761297.376342,0.4690264007103968,1770761297.439637,1770761297.9399147,True,FRUIT,Was the last object a fruit?,1770761297.9399147,False,False,True,False,1.4271587999537587,1770761299.449087,1770761299.757055,1770761301.2995107,1.5424556732177734
ZELIN,91,6,Giraffe,BIG_ANIMAL,Lure,True,STIMULI\biganimal\Giraffe\Lure_006.jpg,2026-02-10 14:08:21.299510,1770761301.2995107,1770761301.9744756,0.658152738185206,1770761302.1404877,1770761302.6411164,False,,,,,,,,,,,,
ZELIN,92,74,Camera,SMALL_OBJECT,Image,False,STIMULI\smallobject\Camera\Image_074.jpg,2026-02-10 14:08:22.641633,1770761302.6416335,1770761303.2587457,0.6102387985917764,1770761303.2981236,1770761303.7987416,False,,,,,,,,,,,,
ZELIN,93,60,Wasp,INSECT,Image,False,STIMULI\INSECT\Wasp\Image_060.jpg,2026-02-10 14:08:23.799252,1770761303.799253,1770761304.4860837,0.6665230768060958,1770761304.5973651,1770761305.0977745,False,,,,,,,,,,,,
ZELIN,94,28,Parrot,BIRD,Lure,True,STIMULI\BIRD\Parrot\Lure_028.jpg,2026-02-10 14:08:25.097774,1770761305.0977745,1770761305.676099,0.5611551459403006,1770761305.7146513,1770761306.2158058,False,,,,,,,,,,,,
ZELIN,95,15,coatrack,BIG_OBJECT,Image,False,STIMULI\bigobject\coatrack\Image_015.jpg,2026-02-10 14:08:26.216317,1770761306.2168264,1770761306.722074,0.4858517527973152,1770761306.7818635,1770761307.2832832,False,,,,,,,,,,,,
ZELIN,96,95,Car,VEHICLE,Lure,True,STIMULI\VEHICLE\Car\Lure_095.jpg,2026-02-10 14:08:27.283283,1770761307.2832832,1770761307.6702971,0.3689722817461993,1770761307.7147698,1770761308.2156065,False,,,,,,,,,,,,
ZELIN,97,90,Squash,VEGETABLE,Lure,True,STIMULI\VEGETABLE\Squash\Lure_090.jpg,2026-02-10 14:08:28.215606,1770761308.2156065,1770761308.684989,0.45018055337507273,1770761308.731471,1770761309.2324288,False,,,,,,,,,,,,
ZELIN,98,75,Envelope,SMALL_OBJECT,Lure,True,STIMULI\smallobject\Envelope\Lure_075.jpg,2026-02-10 14:08:29.232428,1770761309.2334294,1770761309.9495862,0.6962886923458151,1770761309.9975634,1770761310.4981642,False,,,,,,,,,,,,
ZELIN,99,26,Hummingbird,BIRD,Lure,True,STIMULI\BIRD\Hummingbird\Lure_026.jpg,2026-02-10 14:08:30.498164,1770761310.4981642,1770761310.8996217,0.3855946508202114,1770761310.9312174,1770761311.431431,False,,,,,,,,,,,,
ZELIN,100,9,Walrus,BIG_ANIMAL,Image,False,STIMULI\biganimal\Walrus\Image_009.jpg,2026-02-10 14:08:31.431942,1770761311.4319427,1770761312.117581,0.6639817121455848,1770761312.180998,1770761312.6817162,True,BIG_ANIMAL,Was the last object a big animal?,1770761312.6817162,True,True,True,False,1.975759300054051,1770761314.7747195,1770761315.091331,1770761316.624575,1.5332438945770264
ZELIN,101,24,Goose,BIRD,Lure,True,STIMULI\BIRD\Goose\Lure_024.jpg,2026-02-10 14:08:36.624575,1770761316.624575,1770761317.233883,0.5939426508398988,1770761317.2731488,1770761317.7740626,False,,,,,,,,,,,,
ZELIN,102,97,Helicopter,VEHICLE,Image,False,STIMULI\VEHICLE\Helicopter\Image_097.jpg,2026-02-10 14:08:37.774062,1770761317.7740626,1770761318.0597188,0.2685447740927924,1770761318.13974,1770761318.640503,False,,,,,,,,,,,,
ZELIN,103,32,Burrito,FOOD,Image,False,STIMULI\FOOD\Burrito\Image_032.jpg,2026-02-10 14:08:38.640503,1770761318.640503,1770761319.2221365,0.5644207937667675,1770761319.3302515,1770761319.832292,False,,,,,,,,,,,,
ZELIN,104,54,Bug,INSECT,Lure,True,STIMULI\INSECT\Bug\Lure_054.jpg,2026-02-10 14:08:39.832292,1770761319.8332922,1770761320.444741,0.604323222333405,1770761320.493822,1770761320.995243,False,,,,,,,,,,,,
ZELIN,105,86,bokchoy,VEGETABLE,Image,False,STIMULI\VEGETABLE\bokchoy\Image_086.jpg,2026-02-10 14:08:40.995754,1770761320.9957547,1770761321.717738,0.7042001962633386,1770761321.7729213,1770761322.274368,False,,,,,,,,,,,,
ZELIN,106,74,Camera,SMALL_OBJECT,Lure,True,STIMULI\smallobject\Camera\Lure_074.jpg,2026-02-10 14:08:42.274368,1770761322.274368,1770761322.5522416,0.25705194606879683,1770761322.6395535,1770761323.140434,False,,,,,,,,,,,,
ZELIN,107,34,Donut,FOOD,Image,False,STIMULI\FOOD\Donut\Image_034.jpg,2026-02-10 14:08:43.140433,1770761323.140434,1770761323.4902341,0.32989396052565484,1770761323.540064,1770761324.0409105,False,,,,,,,,,,,,
ZELIN,108,2,Alpaca,BIG_ANIMAL,Image,False,STIMULI\biganimal\Alpaca\Image_002.jpg,2026-02-10 14:08:44.040910,1770761324.0409105,1770761324.723552,0.6647096641294432,1770761324.7905664,1770761325.2920382,False,,,,,,,,,,,,
ZELIN,109,39,Pizza,FOOD,Lure,True,STIMULI\FOOD\Pizza\Lure_039.jpg,2026-02-10 14:08:45.292038,1770761325.2920382,1770761325.9430346,0.632354213194607,1770761325.9907784,1770761326.4910994,False,,,,,,,,,,,,
ZELIN,110,63,Dog,SMALL_ANIMAL,Image,False,STIMULI\smallanimal\Dog\Image_063.jpg,2026-02-10 14:08:46.491099,1770761326.4910994,1770761326.842081,0.33139579342227243,1770761326.889013,1770761327.3908682,True,SMALL_ANIMAL,Was the last object a small animal?,1770761327.3908682,False,True,False,False,1.9970512998988852,1770761329.4855628,1770761329.800555,1770761331.3517709,1.5512158870697021
ZELIN,111,89,Pepper,VEGETABLE,Lure,True,STIMULI\VEGETABLE\Pepper\Lure_089.jpg,2026-02-10 14:08:51.352771,1770761331.3527718,1770761331.8774512,0.5077483041626689,1770761331.931481,1770761332.4321334,False,,,,,,,,,,,,
ZELIN,112,61,Beaver,SMALL_ANIMAL,Lure,True,STIMULI\smallanimal\Beaver\Lure_061.jpg,2026-02-10 14:08:52.432133,1770761332.4321334,1770761333.1512947,0.699797960207476,1770761333.2837691,1770761333.7846615,False,,,,,,,,,,,,
ZELIN,113,75,Envelope,SMALL_OBJECT,Image,False,STIMULI\smallobject\Envelope\Image_075.jpg,2026-02-10 14:08:53.784661,1770761333.7846615,1770761334.108328,0.3062364358053999,1770761334.429597,1770761334.9305742,False,,,,,,,,,,,,
ZELIN,114,47,Peach,FRUIT,Image,False,STIMULI\FRUIT\Peach\Image_047.jpg,2026-02-10 14:08:54.930574,1770761334.9315023,1770761335.2931287,0.3317510261338238,1770761335.3323953,1770761335.8324158,False,,,,,,,,,,,,
ZELIN,115,56,Caterpillar,INSECT,Lure,True,STIMULI\INSECT\Caterpillar\Lure_056.jpg,2026-02-10 14:08:55.832415,1770761335.8324158,1770761336.3124027,0.4607440311711883,1770761336.4304738,1770761336.9313052,False,,,,,,,,,,,,
ZELIN,116,81,Arugula,VEGETABLE,Image,False,STIMULI\VEGETABLE\Arugula\Image_081.jpg,2026-02-10 14:08:56.931816,1770761336.931817,1770761337.238994,0.2860925374569123,1770761337.2978427,1770761337.7984204,False,,,,,,,,,,,,
ZELIN,117,7,Hippopotamus,BIG_ANIMAL,Lure,True,STIMULI\biganimal\Hippopotamus\Lure_007.jpg,2026-02-10 14:08:57.798420,1770761337.7996547,1770761338.1214387,0.30259530022773506,1770761338.1814787,1770761338.683258,False,,,,,,,,,,,,
ZELIN,118,43,Blueberry,FRUIT,Lure,True,STIMULI\FRUIT\Blueberry\Lure_043.jpg,2026-02-10 14:08:58.683765,1770761338.6837654,1770761338.9927332,0.294718389807535,1770761339.0348997,1770761339.5352814,False,,,,,,,,,,,,
ZELIN,119,21,Chicken,BIRD,Lure,True,STIMULI\BIRD\Chicken\Lure_021.jpg,2026-02-10 14:08:59.535792,1770761339.5357928,1770761340.1235378,0.5743389354401767,1770761340.1486633,1770761340.648662,False,,,,,,,,,,,,
ZELIN,120,2,Alpaca,BIG_ANIMAL,Lure,True,STIMULI\biganimal\Alpaca\Lure_002.jpg,2026-02-10 14:09:00.648662,1770761340.649655,1770761340.9620144,0.29628488505855494,1770761340.9993792,1770761341.5004683,True,BIG_ANIMAL,Was the last object a big animal?,1770761341.5004683,True,True,True,False,2.7294262999203056,1770761344.3446484,1770761344.657902,1770761346.198588,1.5406858921051025
ZELIN,121,11,Barrel,BIG_OBJECT,Lure,True,STIMULI\bigobject\Barrel\Lure_011.jpg,2026-02-10 14:09:06.198588,1770761346.199587,1770761346.814565,0.5980433524085329,1770761346.8824236,1770761347.3831787,False,,,,,,,,,,,,
ZELIN,122,86,bokchoy,VEGETABLE,Lure,True,STIMULI\VEGETABLE\bokchoy\Lure_086.jpg,2026-02-10 14:09:07.383178,1770761347.3831787,1770761348.0280898,0.6249144948482295,1770761348.0812771,1770761348.5826163,False,,,,,,,,,,,,
ZELIN,123,91,Airplane,VEHICLE,Image,False,STIMULI\VEHICLE\Airplane\Image_091.jpg,2026-02-10 14:09:08.582616,1770761348.5826163,1770761349.293607,0.6910136132146423,1770761349.3495843,1770761349.8496625,False,,,,,,,,,,,,
ZELIN,124,69,Mouse,SMALL_ANIMAL,Lure,True,STIMULI\smallanimal\Mouse\Lure_069.jpg,2026-02-10 14:09:09.849662,1770761349.8496625,1770761350.298992,0.42963374612932315,1770761350.3676374,1770761350.868831,False,,,,,,,,,,,,
ZELIN,125,45,Mulberry,FRUIT,Image,False,STIMULI\FRUIT\Mulberry\Image_045.jpg,2026-02-10 14:09:10.868831,1770761350.86976,1770761351.4011858,0.5189790630484317,1770761351.4663744,1770761351.9669542,False,,,,,,,,,,,,
ZELIN,126,25,Hawk,BIRD,Image,False,STIMULI\BIRD\Hawk\Image_025.jpg,2026-02-10 14:09:11.967463,1770761351.967463,1770761352.307346,0.32251992288696196,1770761352.3478544,1770761352.8485882,False,,,,,,,,,,,,
ZELIN,127,97,Helicopter,VEHICLE,Lure,True,STIMULI\VEHICLE\Helicopter\Lure_097.jpg,2026-02-10 14:09:12.849107,1770761352.8491077,1770761353.1636086,0.2985016313731714,1770761353.2141628,1770761353.7162588,False,,,,,,,,,,,,
ZELIN,128,51,Ant,INSECT,Lure,True,STIMULI\INSECT\Ant\Lure_051.jpg,2026-02-10 14:09:13.716258,1770761353.7162588,1770761354.1274524,0.3947368940511663,1770761354.1809325,1770761354.68197,False,,,,,,,,,,,,
ZELIN,129,88,Kale,VEGETABLE,Lure,True,STIMULI\VEGETABLE\Kale\Lure_088.jpg,2026-02-10 14:09:14.681969,1770761354.68197,1770761355.4044352,0.7040859753939623,1770761355.4661596,1770761355.9667153,False,,,,,,,,,,,,
ZELIN,130,33,Cake,FOOD,Image,False,STIMULI\FOOD\Cake\Image_033.jpg,2026-02-10 14:09:15.966715,1770761355.9667153,1770761356.290512,0.3084013381214033,1770761356.3477225,1770761356.8485048,True,FOOD,Was the last object a food?,1770761356.8485048,True,True,True,False,1.4926363999256864,1770761358.4323933,1770761358.7484033,1770761360.2990863,1.5506830215454102
ZELIN,131,35,Hotdog,FOOD,Lure,True,STIMULI\FOOD\Hotdog\Lure_035.jpg,2026-02-10 14:09:20.299086,1770761360.3000264,1770761360.589667,0.27336795803170477,1770761360.6316636,1770761361.1334631,False,,,,,,,,,,,,
ZELIN,132,19,Mailbox,BIG_OBJECT,Image,False,STIMULI\bigobject\Mailbox\Image_019.jpg,2026-02-10 14:09:21.133971,1770761361.1339717,1770761361.433967,0.28480750214278755,1770761361.581993,1770761362.083214,False,,,,,,,,,,,,
ZELIN,133,23,Flamingo,BIRD,Image,False,STIMULI\BIRD\Flamingo\Image_023.jpg,2026-02-10 14:09:22.083214,1770761362.083214,1770761362.6237812,0.521593598276128,1770761362.6830432,1770761363.1838515,False,,,,,,,,,,,,
ZELIN,134,49,Strawberry,FRUIT,Image,False,STIMULI\FRUIT\Strawberry\Image_049.jpg,2026-02-10 14:09:23.184371,1770761363.1843717,1770761363.6050258,0.4067051862066408,1770761363.6819713,1770761364.1829197,False,,,,,,,,,,,,
ZELIN,135,96,cruiseship,VEHICLE,Lure,True,STIMULI\VEHICLE\cruiseship\Lure_096.jpg,2026-02-10 14:09:24.182919,1770761364.1829197,1770761364.5587053,0.35823701442133704,1770761364.6010246,1770761365.1013024,False,,,,,,,,,,,,
ZELIN,136,57,Fly,INSECT,Lure,True,STIMULI\INSECT\Fly\Lure_057.jpg,2026-02-10 14:09:25.101813,1770761365.1018138,1770761365.722244,0.60686228364553,1770761365.7641242,1770761366.2664897,False,,,,,,,,,,,,
ZELIN,137,44,Coconut,FRUIT,Lure,True,STIMULI\FRUIT\Coconut\Lure_044.jpg,2026-02-10 14:09:26.266489,1770761366.2664897,1770761366.757257,0.47092292486061765,1770761366.8147533,1770761367.3156488,False,,,,,,,,,,,,
ZELIN,138,24,Goose,BIRD,Image,False,STIMULI\BIRD\Goose\Image_024.jpg,2026-02-10 14:09:27.316160,1770761367.3161604,1770761367.8625958,0.5299835520756533,1770761367.914973,1770761368.4172893,False,,,,,,,,,,,,
ZELIN,139,31,Bagel,FOOD,Lure,True,STIMULI\FOOD\Bagel\Lure_031.jpg,2026-02-10 14:09:28.417289,1770761368.4182196,1770761369.0072303,0.5749729538424673,1770761369.1832047,1770761369.6844435,False,,,,,,,,,,,,
ZELIN,140,47,Peach,FRUIT,Lure,True,STIMULI\FRUIT\Peach\Lure_047.jpg,2026-02-10 14:09:29.684443,1770761369.6844435,1770761370.4294431,0.7309174031947749,1770761370.4647908,1770761370.9659798,True,FRUIT,Was the last object a fruit?,1770761370.9659798,True,True,True,False,1.4961857000598684,1770761372.6108522,1770761372.9223144,1770761374.4582777,1.5359632968902588
ZELIN,141,52,Bee,INSECT,Lure,True,STIMULI\INSECT\Bee\Lure_052.jpg,2026-02-10 14:09:34.458277,1770761374.4592776,1770761374.740811,0.2660555634381351,1770761374.7908633,1770761375.2918909,False,,,,,,,,,,,,
ZELIN,142,38,Pie,FOOD,Lure,True,STIMULI\FOOD\Pie\Lure_038.jpg,2026-02-10 14:09:35.291891,1770761375.2918909,1770761375.9834445,0.6723753596705728,1770761376.0403292,1770761376.5411284,False,,,,,,,,,,,,
ZELIN,143,26,Hummingbird,BIRD,Image,False,STIMULI\BIRD\Hummingbird\Image_026.jpg,2026-02-10 14:09:36.541128,1770761376.5411284,1770761377.032943,0.4758775436046155,1770761377.0731883,1770761377.5742457,False,,,,,,,,,,,,
ZELIN,144,16,Couch,BIG_OBJECT,Image,False,STIMULI\bigobject\Couch\Image_016.jpg,2026-02-10 14:09:37.574758,1770761377.574758,1770761378.3095746,0.7151495845799323,1770761378.452142,1770761378.9586678,False,,,,,,,,,,,,
ZELIN,145,38,Pie,FOOD,Image,False,STIMULI\FOOD\Pie\Image_038.jpg,2026-02-10 14:09:38.959667,1770761378.9596674,1770761379.4907792,0.517174692775753,1770761379.5385435,1770761380.0406353,False,,,,,,,,,,,,
ZELIN,146,5,Elephant,BIG_ANIMAL,Image,False,STIMULI\biganimal\Elephant\Image_005.jpg,2026-02-10 14:09:40.040635,1770761380.0406353,1770761380.7736042,0.7165937420135218,1770761380.8291514,1770761381.3297677,False,,,,,,,,,,,,
ZELIN,147,76,Football,SMALL_OBJECT,Lure,True,STIMULI\smallobject\Football\Lure_076.jpg,2026-02-10 14:09:41.329767,1770761381.3302743,1770761382.0358486,0.6965204654981096,1770761382.1574144,1770761382.6580777,False,,,,,,,,,,,,
ZELIN,148,40,Soup,FOOD,Image,False,STIMULI\FOOD\Soup\Image_040.jpg,2026-02-10 14:09:42.658586,1770761382.658587,1770761383.3180737,0.6404649001684846,1770761383.37258,1770761383.8728433,False,,,,,,,,,,,,
ZELIN,149,72,Basket,SMALL_OBJECT,Image,False,STIMULI\smallobject\Basket\Image_072.jpg,2026-02-10 14:09:43.873363,1770761383.873363,1770761384.4881158,0.5978908920538981,1770761384.589781,1770761385.0907578,False,,,,,,,,,,,,
ZELIN,150,65,Groundhog,SMALL_ANIMAL,Lure,True,STIMULI\smallanimal\Groundhog\Lure_065.jpg,2026-02-10 14:09:45.091759,1770761385.0917592,1770761385.5994077,0.49196765038575996,1770761385.6427557,1770761386.1433582,True,INSECT,Was the last object an insect?,1770761386.1433582,False,False,True,False,1.644446299993433,1770761387.8493896,1770761388.166066,1770761389.6977417,1.5316758155822754
ZELIN,151,7,Hippopotamus,BIG_ANIMAL,Image,False,STIMULI\biganimal\Hippopotamus\Image_007.jpg,2026-02-10 14:09:49.697741,1770761389.6977417,1770761390.3073785,0.5928531384260287,1770761390.3643172,1770761390.8648438,False,,,,,,,,,,,,
ZELIN,152,42,Banana,FRUIT,Image,False,STIMULI\FRUIT\Banana\Image_042.jpg,2026-02-10 14:09:50.864843,1770761390.8658445,1770761391.3192422,0.43490134067160036,1770761391.548794,1770761392.050362,False,,,,,,,,,,,,
ZELIN,153,30,Penguin,BIRD,Image,False,STIMULI\BIRD\Penguin\Image_030.jpg,2026-02-10 14:09:52.050362,1770761392.0512905,1770761392.404137,0.33797563878759046,1770761392.4466178,1770761392.9477003,False,,,,,,,,,,,,
ZELIN,154,31,Bagel,FOOD,Image,False,STIMULI\FOOD\Bagel\Image_031.jpg,2026-02-10 14:09:52.947700,1770761392.948629,1770761393.6251082,0.6567433426199081,1770761393.8161871,1770761394.31691,False,,,,,,,,,,,,
ZELIN,155,99,Jetski,VEHICLE,Lure,True,STIMULI\VEHICLE\Jetski\Lure_099.jpg,2026-02-10 14:09:54.316910,1770761394.31691,1770761394.665378,0.33463503995004795,1770761394.7140932,1770761395.214777,False,,,,,,,,,,,,
ZELIN,156,72,Basket,SMALL_OBJECT,Lure,True,STIMULI\smallobject\Basket\Lure_072.jpg,2026-02-10 14:09:55.216646,1770761395.2166462,1770761395.7812414,0.5485040962498013,1770761395.9954484,1770761396.4967093,False,,,,,,,,,,,,
ZELIN,157,43,Blueberry,FRUIT,Image,False,STIMULI\FRUIT\Blueberry\Image_043.jpg,2026-02-10 14:09:56.496709,1770761396.4977047,1770761397.15546,0.6369552099624083,1770761397.2819004,1770761397.7823603,False,,,,,,,,,,,,
ZELIN,158,59,Moth,INSECT,Lure,True,STIMULI\INSECT\Moth\Lure_059.jpg,2026-02-10 14:09:57.782360,1770761397.7823603,1770761398.4605398,0.6593877089802337,1770761398.4976869,1770761398.998563,False,,,,,,,,,,,,
ZELIN,159,66,Iguana,SMALL_ANIMAL,Lure,True,STIMULI\smallanimal\Iguana\Lure_066.jpg,2026-02-10 14:09:58.999074,1770761398.9990742,1770761399.7322018,0.7122720959907818,1770761399.7806404,1770761400.2832797,False,,,,,,,,,,,,
ZELIN,160,96,cruiseship,VEHICLE,Image,False,STIMULI\VEHICLE\cruiseship\Image_096.jpg,2026-02-10 14:10:00.283279,1770761400.2832797,1770761400.9279113,0.6308996526322825,1770761400.9818375,1770761401.4829392,True,FOOD,Was the last object a food?,1770761401.4829392,False,False,True,False,1.57078510010615,1770761403.1517804,1770761403.4635403,1770761405.0074246,1.54388427734375
ZELIN,161,57,Fly,INSECT,Image,False,STIMULI\INSECT\Fly\Image_057.jpg,2026-02-10 14:10:05.007424,1770761405.0074246,1770761405.697411,0.6727292131115856,1770761405.7566218,1770761406.2573454,False,,,,,,,,,,,,
ZELIN,162,21,Chicken,BIRD,Image,False,STIMULI\BIRD\Chicken\Image_021.jpg,2026-02-10 14:10:06.257345,1770761406.2573454,1770761406.9821775,0.7087537973450662,1770761407.0393465,1770761407.5398214,False,,,,,,,,,,,,
ZELIN,163,1,Alligator,BIG_ANIMAL,Lure,True,STIMULI\biganimal\Alligator\Lure_001.jpg,2026-02-10 14:10:07.539821,1770761407.5398214,1770761407.9393172,0.38182059206925856,1770761408.0225072,1770761408.5239124,False,,,,,,,,,,,,
ZELIN,164,51,Ant,INSECT,Image,False,STIMULI\INSECT\Ant\Image_051.jpg,2026-02-10 14:10:08.525435,1770761408.526435,1770761409.0289595,0.48594568148907946,1770761409.0745645,1770761409.5766196,False,,,,,,,,,,,,
ZELIN,165,87,Carrot,VEGETABLE,Lure,True,STIMULI\VEGETABLE\Carrot\Lure_087.jpg,2026-02-10 14:10:09.577130,1770761409.577131,1770761409.958894,0.3651213734708942,1770761410.006976,1770761410.5083811,False,,,,,,,,,,,,
ZELIN,166,50,Watermelon,FRUIT,Image,False,STIMULI\FRUIT\Watermelon\Image_050.jpg,2026-02-10 14:10:10.508381,1770761410.5083811,1770761410.9233754,0.3948047269590556,1770761410.9720583,1770761411.4724712,False,,,,,,,,,,,,
ZELIN,167,46,Orange,FRUIT,Image,False,STIMULI\FRUIT\Orange\Image_046.jpg,2026-02-10 14:10:11.473399,1770761411.473399,1770761411.99109,0.4975403945607791,1770761412.0392287,1770761412.5400138,False,,,,,,,,,,,,
ZELIN,168,67,Koala,SMALL_ANIMAL,Image,False,STIMULI\smallanimal\Koala\Image_067.jpg,2026-02-10 14:10:12.540013,1770761412.5400138,1770761412.985522,0.42590217586037465,1770761413.0392258,1770761413.5406368,False,,,,,,,,,,,,
ZELIN,169,44,Coconut,FRUIT,Image,False,STIMULI\FRUIT\Coconut\Image_044.jpg,2026-02-10 14:10:13.540636,1770761413.5406368,1770761413.8243895,0.2646039586483791,1770761413.9232724,1770761414.4234285,False,,,,,,,,,,,,
ZELIN,170,65,Groundhog,SMALL_ANIMAL,Image,False,STIMULI\smallanimal\Groundhog\Image_065.jpg,2026-02-10 14:10:14.423940,1770761414.4239402,1770761414.830615,0.38774302840132274,1770761414.889239,1770761415.3900907,True,SMALL_ANIMAL,Was the last object a small animal?,1770761415.3900907,True,True,True,False,1.9634836000623181,1770761417.435917,1770761417.7495656,1770761419.2810967,1.5315310955047607
ZELIN,171,22,Duck,BIRD,Lure,True,STIMULI\BIRD\Duck\Lure_022.jpg,2026-02-10 14:10:19.281615,1770761419.281616,1770761420.044486,0.7451661392370559,1770761420.0997903,1770761420.600442,False,,,,,,,,,,,,
ZELIN,172,70,Otter,SMALL_ANIMAL,Lure,True,STIMULI\smallanimal\Otter\Lure_070.jpg,2026-02-10 14:10:20.600953,1770761420.6009536,1770761421.1638966,0.5446734023838029,1770761421.2993014,1770761421.8009744,False,,,,,,,,,,,,
ZELIN,173,36,icecream,FOOD,Lure,True,STIMULI\FOOD\icecream\Lure_036.jpg,2026-02-10 14:10:21.801482,1770761421.801482,1770761422.2841003,0.46600945580225955,1770761422.3306015,1770761422.8312333,False,,,,,,,,,,,,
ZELIN,174,64,Frog,SMALL_ANIMAL,Image,False,STIMULI\smallanimal\Frog\Image_064.jpg,2026-02-10 14:10:22.831745,1770761422.831745,1770761423.1550045,0.3060722702979818,1770761423.21687,1770761423.7180977,False,,,,,,,,,,,,
ZELIN,175,68,Monkey,SMALL_ANIMAL,Image,False,STIMULI\smallanimal\Monkey\Image_068.jpg,2026-02-10 14:10:23.718097,1770761423.7180977,1770761424.1126232,0.37621670886007247,1770761424.1632075,1770761424.6646302,False,,,,,,,,,,,,
ZELIN,176,50,Watermelon,FRUIT,Lure,True,STIMULI\FRUIT\Watermelon\Lure_050.jpg,2026-02-10 14:10:24.665142,1770761424.665142,1770761424.9406104,0.25407072882971576,1770761424.9985602,1770761425.499667,False,,,,,,,,,,,,
ZELIN,177,3,Camel,BIG_ANIMAL,Image,False,STIMULI\biganimal\Camel\Image_003.jpg,2026-02-10 14:10:25.499666,1770761425.499667,1770761425.9809258,0.4620872454842325,1770761426.0637221,1770761426.5648546,False,,,,,,,,,,,,
ZELIN,178,85,Bean,VEGETABLE,Image,False,STIMULI\VEGETABLE\Bean\Image_085.jpg,2026-02-10 14:10:26.564854,1770761426.5648546,1770761426.9367442,0.35496913295342936,1770761427.0017407,1770761427.5019975,False,,,,,,,,,,,,
ZELIN,179,69,Mouse,SMALL_ANIMAL,Image,False,STIMULI\smallanimal\Mouse\Image_069.jpg,2026-02-10 14:10:27.502509,1770761427.5025094,1770761427.8074257,0.29145359424480954,1770761427.9151106,1770761428.4169717,False,,,,,,,,,,,,
ZELIN,180,83,Avocado,VEGETABLE,Lure,True,STIMULI\VEGETABLE\Avocado\Lure_083.jpg,2026-02-10 14:10:28.416971,1770761428.4169717,1770761428.9211574,0.4909455954357363,1770761428.9865215,1770761429.4880888,True,VEGETABLE,Was the last object a vegetable?,1770761429.4880888,False,True,False,False,2.313738299999386,1770761431.8927906,1770761432.2057226,1770761433.7569983,1.5512757301330566
ZELIN,181,91,Airplane,VEHICLE,Lure,True,STIMULI\VEHICLE\Airplane\Lure_091.jpg,2026-02-10 14:10:33.756998,1770761433.757979,1770761434.2130637,0.4392052608113189,1770761434.2600968,1770761434.760819,False,,,,,,,,,,,,
ZELIN,182,93,Boat,VEHICLE,Lure,True,STIMULI\VEHICLE\Boat\Lure_093.jpg,2026-02-10 14:10:34.760819,1770761434.760819,1770761435.4959004,0.7244084089235465,1770761435.5219584,1770761436.0228617,False,,,,,,,,,,,,
ZELIN,183,84,Basil,VEGETABLE,Lure,True,STIMULI\VEGETABLE\Basil\Lure_084.jpg,2026-02-10 14:10:36.022861,1770761436.0228617,1770761436.5504148,0.5108518634608019,1770761436.5910285,1770761437.0912235,False,,,,,,,,,,,,
ZELIN,184,29,Peacock,BIRD,Lure,True,STIMULI\BIRD\Peacock\Lure_029.jpg,2026-02-10 14:10:37.091735,1770761437.0917358,1770761437.5708594,0.4631362394665599,1770761437.6225972,1770761438.123215,False,,,,,,,,,,,,
ZELIN,185,80,Lamp,SMALL_OBJECT,Image,False,STIMULI\smallobject\Lamp\Image_080.jpg,2026-02-10 14:10:38.123727,1770761438.123727,1770761438.5295494,0.3896641392705062,1770761438.5720396,1770761439.0738945,False,,,,,,,,,,,,
ZELIN,186,81,Arugula,VEGETABLE,Lure,True,STIMULI\VEGETABLE\Arugula\Lure_081.jpg,2026-02-10 14:10:39.073894,1770761439.0738945,1770761439.4381983,0.34849735491121614,1770761439.489814,1770761439.990608,False,,,,,,,,,,,,
ZELIN,187,19,Mailbox,BIG_OBJECT,Lure,True,STIMULI\bigobject\Mailbox\Lure_019.jpg,2026-02-10 14:10:39.991119,1770761439.9911196,1770761440.3596885,0.351407734931257,1770761440.507245,1770761441.0081067,False,,,,,,,,,,,,
ZELIN,188,92,Bike,VEHICLE,Image,False,STIMULI\VEHICLE\Bike\Image_092.jpg,2026-02-10 14:10:41.008640,1770761441.0086405,1770761441.420834,0.3944881144406151,1770761441.4897008,1770761441.9898875,False,,,,,,,,,,,,
ZELIN,189,16,Couch,BIG_OBJECT,Lure,True,STIMULI\bigobject\Couch\Lure_016.jpg,2026-02-10 14:10:41.990399,1770761441.990399,1770761442.271727,0.26482769039894705,1770761442.3568876,1770761442.858055,False,,,,,,,,,,,,
ZELIN,190,10,Zebra,BIG_ANIMAL,Lure,True,STIMULI\biganimal\Zebra\Lure_010.jpg,2026-02-10 14:10:42.858566,1770761442.858567,1770761443.2759724,0.40272937935000874,1770761443.3230448,1770761443.8236024,True,BIRD,Was the last object a bird?,1770761443.8236024,False,False,True,False,1.4121862000320107,1770761445.3187099,1770761445.6317873,1770761447.1649086,1.5331213474273682
ZELIN,191,94,Bus,VEHICLE,Lure,True,STIMULI\VEHICLE\Bus\Lure_094.jpg,2026-02-10 14:10:47.165416,1770761447.1654165,1770761447.5695791,0.38660260811895897,1770761447.6153839,1770761448.1167862,False,,,,,,,,,,,,
ZELIN,192,39,Pizza,FOOD,Image,False,STIMULI\FOOD\Pizza\Image_039.jpg,2026-02-10 14:10:48.116786,1770761448.1172945,1770761448.704757,0.5731734952833814,1770761448.747538,1770761449.2489336,False,,,,,,,,,,,,
ZELIN,193,33,Cake,FOOD,Lure,True,STIMULI\FOOD\Cake\Lure_033.jpg,2026-02-10 14:10:49.248933,1770761449.2499392,1770761449.78305,0.5172205625696213,1770761449.8308716,1770761450.3322248,False,,,,,,,,,,,,
ZELIN,194,22,Duck,BIRD,Image,False,STIMULI\BIRD\Duck\Image_022.jpg,2026-02-10 14:10:50.332224,1770761450.3331535,1770761450.8515007,0.5018054420950846,1770761450.9157019,1770761451.4164507,False,,,,,,,,,,,,
ZELIN,195,64,Frog,SMALL_ANIMAL,Lure,True,STIMULI\smallanimal\Frog\Lure_064.jpg,2026-02-10 14:10:51.416959,1770761451.4169595,1770761451.7425754,0.30747451783018176,1770761451.7809103,1770761452.281755,False,,,,,,,,,,,,
ZELIN,196,99,Jetski,VEHICLE,Image,False,STIMULI\VEHICLE\Jetski\Image_099.jpg,2026-02-10 14:10:52.281754,1770761452.281755,1770761453.0473754,0.745281365791838,1770761453.0983348,1770761453.598045,False,,,,,,,,,,,,
ZELIN,197,20,Phonebooth,BIG_OBJECT,Lure,True,STIMULI\bigobject\Phonebooth\Lure_020.jpg,2026-02-10 14:10:53.598045,1770761453.5990515,1770761454.3541293,0.7388399222831388,1770761454.3996725,1770761454.900218,False,,,,,,,,,,,,
ZELIN,198,48,Pineapple,FRUIT,Image,False,STIMULI\FRUIT\Pineapple\Image_048.jpg,2026-02-10 14:10:54.900729,1770761454.9007297,1770761455.5804443,0.6653780289956045,1770761455.8364177,1770761456.3367138,False,,,,,,,,,,,,
ZELIN,199,84,Basil,VEGETABLE,Image,False,STIMULI\VEGETABLE\Basil\Image_084.jpg,2026-02-10 14:10:56.337235,1770761456.3372357,1770761456.7999535,0.44825919277456877,1770761456.8636942,1770761457.3649535,False,,,,,,,,,,,,
ZELIN,200,41,Apple,FRUIT,Image,False,STIMULI\FRUIT\Apple\Image_041.jpg,2026-02-10 14:10:57.364953,1770761457.3649535,1770761457.7896965,0.4027143956420558,1770761457.8647566,1770761458.3655183,True,FRUIT,Was the last object a fruit?,1770761458.3655183,True,True,True,False,1.2223596998956054,1770761459.7023835,1770761460.0199432,1770761461.5513203,1.5313770771026611
