participant_id,trial,stimulus_number,object_name,category,stimulus_type,is_lure,image_path,presentation_time,fixation_onset_time,fixation_offset_time,fixation_duration,image_onset_time,image_offset_time,is_question_trial,question_object,question_text,question_onset_time,answer,correct_answer,correct,timed_out,response_time,answer_click_time
p1,1,94,Bus,VEHICLE,Image,False,STIMULI/VEHICLE/Bus/Image_094.jpg,2026-02-12 11:57:11.816398,1770915431.4461892,1770915431.816322,0.34930444935439303,1770915432.121513,1770915432.621651,False,,,,,,,,,
p1,2,1,Alligator,BIG_ANIMAL,Lure,True,STIMULI/biganimal/Alligator/Lure_001.jpg,2026-02-12 11:57:12.622196,1770915432.622411,1770915433.315546,0.6893668624463347,1770915433.450767,1770915433.950916,False,,,,,,,,,
p1,3,11,Barrel,BIG_OBJECT,Lure,True,STIMULI/bigobject/Barrel/Lure_011.jpg,2026-02-12 11:57:13.951348,1770915433.9515479,1770915434.561623,0.6028368051083522,1770915434.6734378,1770915435.173852,False,,,,,,,,,
p1,4,46,Orange,FRUIT,Lure,True,STIMULI/FRUIT/Orange/Lure_046.jpg,2026-02-12 11:57:15.174384,1770915435.174738,1770915435.8128488,0.6224247272740697,1770915435.89088,1770915436.39095,False,,,,,,,,,
p1,5,18,hottub,BIG_OBJECT,Lure,True,STIMULI/bigobject/hottub/Lure_018.jpg,2026-02-12 11:57:16.391289,1770915436.391458,1770915436.904215,0.507802555866649,1770915436.99024,1770915437.490303,False,,,,,,,,,
p1,6,68,Monkey,SMALL_ANIMAL,Image,False,STIMULI/smallanimal/Monkey/Image_068.jpg,2026-02-12 11:57:17.490707,1770915437.490912,1770915438.136311,0.637944977110098,1770915438.210527,1770915438.710888,False,,,,,,,,,
p1,7,75,Envelope,SMALL_OBJECT,Image,False,STIMULI/smallobject/Envelope/Image_075.jpg,2026-02-12 11:57:18.713117,1770915438.714019,1770915439.388237,0.6472067654233697,1770915440.232419,1770915440.732801,False,,,,,,,,,
p1,8,10,Zebra,BIG_ANIMAL,Image,False,STIMULI/biganimal/Zebra/Image_010.jpg,2026-02-12 11:57:20.736384,1770915440.736714,1770915441.502013,0.2985702436925284,1770915441.658237,1770915442.158337,False,,,,,,,,,
p1,9,41,Apple,FRUIT,Lure,True,STIMULI/FRUIT/Apple/Lure_041.jpg,2026-02-12 11:57:22.162305,1770915442.1638882,1770915442.487374,0.30352843974220733,1770915442.622754,1770915443.123053,False,,,,,,,,,
p1,10,29,Peacock,BIRD,Image,False,STIMULI/BIRD/Peacock/Image_029.jpg,2026-02-12 11:57:23.123743,1770915443.124052,1770915443.594371,0.4405750226730396,1770915443.6633348,1770915444.163562,True,Peacock,Was the last object a peacock?,1770915444.163583,TIMEOUT,True,,True,10.0,
p1,11,74,Camera,SMALL_OBJECT,Lure,True,STIMULI/smallobject/Camera/Lure_074.jpg,2026-02-12 11:57:36.617429,1770915456.6247182,1770915457.314452,0.6310734439206762,1770915457.5218282,1770915458.0225,False,,,,,,,,,
p1,12,51,Ant,INSECT,Lure,True,STIMULI/INSECT/Ant/Lure_051.jpg,2026-02-12 11:57:38.023187,1770915458.023419,1770915458.3178391,0.28050452097885276,1770915458.4587572,1770915458.959197,False,,,,,,,,,
p1,13,3,Camel,BIG_ANIMAL,Image,False,STIMULI/biganimal/Camel/Image_003.jpg,2026-02-12 11:57:38.959774,1770915458.960022,1770915459.4236171,0.4586989465220833,1770915459.5286772,1770915460.0341382,False,,,,,,,,,
p1,14,44,Coconut,FRUIT,Lure,True,STIMULI/FRUIT/Coconut/Lure_044.jpg,2026-02-12 11:57:40.040246,1770915460.0411751,1770915460.703043,0.6476268862604124,1770915460.8075352,1770915461.3077161,False,,,,,,,,,
p1,15,95,Car,VEHICLE,Image,False,STIMULI/VEHICLE/Car/Image_095.jpg,2026-02-12 11:57:41.308370,1770915461.3086028,1770915461.8293812,0.5057733569616933,1770915461.89009,1770915462.3901749,False,,,,,,,,,
p1,16,37,Pasta,FOOD,Lure,True,STIMULI/FOOD/Pasta/Lure_037.jpg,2026-02-12 11:57:42.391549,1770915462.391903,1770915462.649871,0.2527329330883634,1770915462.7022111,1770915463.2024572,False,,,,,,,,,
p1,17,31,Bagel,FOOD,Image,False,STIMULI/FOOD/Bagel/Image_031.jpg,2026-02-12 11:57:43.203985,1770915463.204715,1770915463.62812,0.4188134119519037,1770915463.9058099,1770915464.405956,False,,,,,,,,,
p1,18,14,Chandelier,BIG_OBJECT,Lure,True,STIMULI/bigobject/Chandelier/Lure_014.jpg,2026-02-12 11:57:44.406587,1770915464.406722,1770915465.104993,0.6929434470782294,1770915465.155596,1770915465.655621,False,,,,,,,,,
p1,19,21,Chicken,BIRD,Lure,True,STIMULI/BIRD/Chicken/Lure_021.jpg,2026-02-12 11:57:45.655730,1770915465.655808,1770915466.0242481,0.36386043256192785,1770915466.078613,1770915466.57869,False,,,,,,,,,
p1,20,95,Car,VEHICLE,Lure,True,STIMULI/VEHICLE/Car/Lure_095.jpg,2026-02-12 11:57:46.579010,1770915466.579065,1770915466.8846521,0.30428864381663623,1770915466.926561,1770915467.4266481,True,Car,Was the last object a car?,1770915467.426677,TIMEOUT,True,,True,10.0,
p1,21,9,Walrus,BIG_ANIMAL,Lure,True,STIMULI/biganimal/Walrus/Lure_009.jpg,2026-02-12 11:57:59.602831,1770915479.602984,1770915480.0318341,0.4151890386396043,1770915480.495862,1770915480.996171,False,,,,,,,,,
p1,22,30,Penguin,BIRD,Image,False,STIMULI/BIRD/Penguin/Image_030.jpg,2026-02-12 11:58:00.999247,1770915480.99974,1770915481.379746,0.3469031052900219,1770915481.3958662,1770915481.895942,False,,,,,,,,,
p1,23,19,Mailbox,BIG_OBJECT,Lure,True,STIMULI/bigobject/Mailbox/Lure_019.jpg,2026-02-12 11:58:01.896230,1770915481.896262,1770915482.4120672,0.5147988795623831,1770915482.45948,1770915482.959552,False,,,,,,,,,
p1,24,55,Butterfly,INSECT,Image,False,STIMULI/INSECT/Butterfly/Image_055.jpg,2026-02-12 11:58:02.959686,1770915482.959739,1770915483.235811,0.2744164982493625,1770915483.385957,1770915483.8859909,False,,,,,,,,,
p1,25,8,Horse,BIG_ANIMAL,Image,False,STIMULI/biganimal/Horse/Image_008.jpg,2026-02-12 11:58:03.886208,1770915483.886267,1770915484.319089,0.4314750459053316,1770915484.3337119,1770915484.833757,False,,,,,,,,,
p1,26,27,Owl,BIRD,Image,False,STIMULI/BIRD/Owl/Image_027.jpg,2026-02-12 11:58:04.833884,1770915484.833929,1770915485.5478752,0.7125447851821871,1770915485.55859,1770915486.05863,False,,,,,,,,,
p1,27,54,Bug,INSECT,Lure,True,STIMULI/INSECT/Bug/Lure_054.jpg,2026-02-12 11:58:06.058770,1770915486.0588212,1770915486.752942,0.690161062452757,1770915486.809762,1770915487.3098292,False,,,,,,,,,
p1,28,98,Jeep,VEHICLE,Image,False,STIMULI/VEHICLE/Jeep/Image_098.jpg,2026-02-12 11:58:07.310078,1770915487.310125,1770915487.78096,0.4658004930458657,1770915487.8895202,1770915488.3895402,False,,,,,,,,,
p1,29,20,Phonebooth,BIG_OBJECT,Image,False,STIMULI/bigobject/Phonebooth/Image_020.jpg,2026-02-12 11:58:08.389796,1770915488.389842,1770915488.888142,0.49670584991231154,1770915488.89919,1770915489.399219,False,,,,,,,,,
p1,30,51,Ant,INSECT,Image,False,STIMULI/INSECT/Ant/Image_051.jpg,2026-02-12 11:58:09.399772,1770915489.399879,1770915489.7568378,0.35532494585353164,1770915489.766128,1770915490.26622,True,Ant,Was the last object an ant?,1770915490.266241,True,True,True,False,1.8951068331953138,1770915492.572949
p1,31,73,Blender,SMALL_OBJECT,Image,False,STIMULI/smallobject/Blender/Image_073.jpg,2026-02-12 11:58:12.885421,1770915492.8854961,1770915493.633427,0.7449802743226873,1770915493.655,1770915494.155027,False,,,,,,,,,
p1,32,69,Mouse,SMALL_ANIMAL,Lure,True,STIMULI/smallanimal/Mouse/Lure_069.jpg,2026-02-12 11:58:14.155184,1770915494.155242,1770915494.546994,0.3885467338915669,1770915494.595482,1770915495.095497,False,,,,,,,,,
p1,33,38,Pie,FOOD,Image,False,STIMULI/FOOD/Pie/Image_038.jpg,2026-02-12 11:58:15.095627,1770915495.095676,1770915495.756747,0.6597348787175299,1770915495.774341,1770915496.27444,False,,,,,,,,,
p1,34,82,Asparagus,VEGETABLE,Lure,True,STIMULI/VEGETABLE/Asparagus/Lure_082.jpg,2026-02-12 11:58:16.274578,1770915496.274631,1770915496.622135,0.34469978108382376,1770915496.667698,1770915497.167768,False,,,,,,,,,
p1,35,85,Bean,VEGETABLE,Image,False,STIMULI/VEGETABLE/Bean/Image_085.jpg,2026-02-12 11:58:17.167946,1770915497.167994,1770915497.687999,0.517837344734676,1770915497.702614,1770915498.202707,False,,,,,,,,,
p1,36,57,Fly,INSECT,Image,False,STIMULI/INSECT/Fly/Image_057.jpg,2026-02-12 11:58:18.202924,1770915498.202967,1770915498.516135,0.3118914102388687,1770915498.5309298,1770915499.030981,False,,,,,,,,,
p1,37,90,Squash,VEGETABLE,Image,False,STIMULI/VEGETABLE/Squash/Image_090.jpg,2026-02-12 11:58:19.031125,1770915499.031179,1770915499.543085,0.5076149487440361,1770915499.5557098,1770915500.055775,False,,,,,,,,,
p1,38,36,icecream,FOOD,Image,False,STIMULI/FOOD/icecream/Image_036.jpg,2026-02-12 11:58:20.055966,1770915500.056014,1770915500.738119,0.6809464608794225,1770915500.7510998,1770915501.2511091,False,,,,,,,,,
p1,39,61,Beaver,SMALL_ANIMAL,Image,False,STIMULI/smallanimal/Beaver/Image_061.jpg,2026-02-12 11:58:21.251238,1770915501.251284,1770915501.8801339,0.6259430531492691,1770915501.89199,1770915502.392002,False,,,,,,,,,
p1,40,52,Bee,INSECT,Lure,True,STIMULI/INSECT/Bee/Lure_052.jpg,2026-02-12 11:58:22.392097,1770915502.392131,1770915502.9806452,0.5872090546310135,1770915503.024033,1770915503.524128,True,Chandelier,Was the last object a chandelier?,1770915503.5242398,TIMEOUT,False,,True,10.0,
p1,41,47,Peach,FRUIT,Lure,True,STIMULI/FRUIT/Peach/Lure_047.jpg,2026-02-12 11:58:35.601036,1770915515.601166,1770915516.162387,0.5463992078139597,1770915516.2165399,1770915516.716552,False,,,,,,,,,
p1,42,65,Groundhog,SMALL_ANIMAL,Image,False,STIMULI/smallanimal/Groundhog/Image_065.jpg,2026-02-12 11:58:36.716707,1770915516.716754,1770915517.4166589,0.6983363082182099,1770915517.435703,1770915517.935711,False,,,,,,,,,
p1,43,72,Basket,SMALL_OBJECT,Image,False,STIMULI/smallobject/Basket/Image_072.jpg,2026-02-12 11:58:37.936916,1770915517.936967,1770915518.298955,0.3578166542714431,1770915518.32982,1770915518.8299022,False,,,,,,,,,
p1,44,99,Jetski,VEHICLE,Lure,True,STIMULI/VEHICLE/Jetski/Lure_099.jpg,2026-02-12 11:58:38.830045,1770915518.830107,1770915519.232219,0.4000789798102738,1770915519.281024,1770915519.78109,False,,,,,,,,,
p1,45,88,Kale,VEGETABLE,Lure,True,STIMULI/VEGETABLE/Kale/Lure_088.jpg,2026-02-12 11:58:39.781229,1770915519.7813098,1770915520.045782,0.26259334425815484,1770915520.095156,1770915520.5952482,False,,,,,,,,,
p1,46,53,Beetle,INSECT,Lure,True,STIMULI/INSECT/Beetle/Lure_053.jpg,2026-02-12 11:58:40.595344,1770915520.59538,1770915520.9515462,0.3549439410267417,1770915520.991711,1770915521.491762,False,,,,,,,,,
p1,47,76,Football,SMALL_OBJECT,Image,False,STIMULI/smallobject/Football/Image_076.jpg,2026-02-12 11:58:41.491903,1770915521.4919481,1770915521.9390452,0.44561112456208357,1770915521.95848,1770915522.458571,False,,,,,,,,,
p1,48,62,Cat,SMALL_ANIMAL,Lure,True,STIMULI/smallanimal/Cat/Lure_062.jpg,2026-02-12 11:58:42.458661,1770915522.458696,1770915522.880308,0.4205676652668447,1770915522.928919,1770915523.428967,False,,,,,,,,,
p1,49,35,Hotdog,FOOD,Image,False,STIMULI/FOOD/Hotdog/Image_035.jpg,2026-02-12 11:58:43.429102,1770915523.429151,1770915523.756205,0.324893383700583,1770915523.997817,1770915524.4978392,False,,,,,,,,,
p1,50,73,Blender,SMALL_OBJECT,Lure,True,STIMULI/smallobject/Blender/Lure_073.jpg,2026-02-12 11:58:44.497982,1770915524.4980311,1770915525.146116,0.6465822712469895,1770915525.189433,1770915525.689461,True,Watermelon,Was the last object a watermelon?,1770915525.6895459,TIMEOUT,False,,True,10.0,
p1,51,71,Balloon,SMALL_OBJECT,Lure,True,STIMULI/smallobject/Balloon/Lure_071.jpg,2026-02-12 11:58:57.811303,1770915537.811407,1770915538.440042,0.6080074086069698,1770915538.485331,1770915538.9853811,False,,,,,,,,,
p1,52,22,Duck,BIRD,Lure,True,STIMULI/BIRD/Duck/Lure_022.jpg,2026-02-12 11:58:58.985535,1770915538.985579,1770915539.291428,0.3025427473762478,1770915539.33389,1770915539.833984,False,,,,,,,,,
p1,53,45,Mulberry,FRUIT,Lure,True,STIMULI/FRUIT/Mulberry/Lure_045.jpg,2026-02-12 11:58:59.834128,1770915539.83418,1770915540.12815,0.29226053716236944,1770915540.173245,1770915540.673283,False,,,,,,,,,
p1,54,80,Lamp,SMALL_OBJECT,Image,False,STIMULI/smallobject/Lamp/Image_080.jpg,2026-02-12 11:59:00.673397,1770915540.673441,1770915541.137234,0.46262237147739854,1770915541.148148,1770915541.648191,False,,,,,,,,,
p1,55,87,Carrot,VEGETABLE,Lure,True,STIMULI/VEGETABLE/Carrot/Lure_087.jpg,2026-02-12 11:59:01.648330,1770915541.648381,1770915542.061024,0.4108902205748576,1770915542.112023,1770915542.6121202,False,,,,,,,,,
p1,56,25,Hawk,BIRD,Image,False,STIMULI/BIRD/Hawk/Image_025.jpg,2026-02-12 11:59:02.612272,1770915542.612326,1770915543.362794,0.7486809632435238,1770915543.374979,1770915543.875031,False,,,,,,,,,
p1,57,12,Bench,BIG_OBJECT,Image,False,STIMULI/bigobject/Bench/Image_012.jpg,2026-02-12 11:59:03.876147,1770915543.876199,1770915544.357006,0.478466503029526,1770915544.4164631,1770915544.916517,False,,,,,,,,,
p1,58,45,Mulberry,FRUIT,Image,False,STIMULI/FRUIT/Mulberry/Image_045.jpg,2026-02-12 11:59:04.916625,1770915544.916667,1770915545.607148,0.687813896521037,1770915545.6236532,1770915546.1237,False,,,,,,,,,
p1,59,89,Pepper,VEGETABLE,Lure,True,STIMULI/VEGETABLE/Pepper/Lure_089.jpg,2026-02-12 11:59:06.123876,1770915546.123944,1770915546.551317,0.4260294093822931,1770915546.601158,1770915547.101239,False,,,,,,,,,
p1,60,83,Avocado,VEGETABLE,Image,False,STIMULI/VEGETABLE/Avocado/Image_083.jpg,2026-02-12 11:59:07.101383,1770915547.10143,1770915547.47349,0.37080685154331466,1770915547.491175,1770915547.9912,True,Avocado,Was the last object an avocado?,1770915547.991206,True,True,True,False,7.626264833379537,1770915555.661074
p1,61,79,Key,SMALL_OBJECT,Image,False,STIMULI/smallobject/Key/Image_079.jpg,2026-02-12 11:59:15.996823,1770915555.996907,1770915556.673609,0.6687511099906234,1770915556.741885,1770915557.241932,False,,,,,,,,,
p1,62,38,Pie,FOOD,Lure,True,STIMULI/FOOD/Pie/Lure_038.jpg,2026-02-12 11:59:17.242105,1770915557.242173,1770915557.5821362,0.3366909754971778,1770915557.6302762,1770915558.130388,False,,,,,,,,,
p1,63,81,Arugula,VEGETABLE,Image,False,STIMULI/VEGETABLE/Arugula/Image_081.jpg,2026-02-12 11:59:18.130549,1770915558.1305978,1770915558.661591,0.5296050621681452,1770915558.678287,1770915559.178369,False,,,,,,,,,
p1,64,64,Frog,SMALL_ANIMAL,Lure,True,STIMULI/smallanimal/Frog/Lure_064.jpg,2026-02-12 11:59:19.178529,1770915559.17858,1770915559.882613,0.7024952234928519,1770915559.923902,1770915560.423926,False,,,,,,,,,
p1,65,32,Burrito,FOOD,Lure,True,STIMULI/FOOD/Burrito/Lure_032.jpg,2026-02-12 11:59:20.424084,1770915560.42413,1770915560.907997,0.4814124688646273,1770915560.952734,1770915561.452765,False,,,,,,,,,
p1,66,42,Banana,FRUIT,Lure,True,STIMULI/FRUIT/Banana/Lure_042.jpg,2026-02-12 11:59:21.452918,1770915561.452968,1770915562.184299,0.7299358088419663,1770915562.230386,1770915562.730434,False,,,,,,,,,
p1,67,60,Wasp,INSECT,Lure,True,STIMULI/INSECT/Wasp/Lure_060.jpg,2026-02-12 11:59:22.732245,1770915562.732325,1770915563.233736,0.49718009435327065,1770915563.2855868,1770915563.7856529,False,,,,,,,,,
p1,68,42,Banana,FRUIT,Image,False,STIMULI/FRUIT/Banana/Image_042.jpg,2026-02-12 11:59:23.785791,1770915563.785835,1770915564.17487,0.38757312367171487,1770915564.359122,1770915564.859225,False,,,,,,,,,
p1,69,5,Elephant,BIG_ANIMAL,Lure,True,STIMULI/biganimal/Elephant/Lure_005.jpg,2026-02-12 11:59:24.859467,1770915564.859586,1770915565.1594958,0.2983975817007536,1770915565.226324,1770915565.7263942,False,,,,,,,,,
p1,70,23,Flamingo,BIRD,Lure,True,STIMULI/BIRD/Flamingo/Lure_023.jpg,2026-02-12 11:59:25.726534,1770915565.726573,1770915566.0259762,0.29828471488668257,1770915566.0683851,1770915566.56848,True,Bench,Was the last object a bench?,1770915566.5685718,TIMEOUT,False,,True,10.0,
p1,71,71,Balloon,SMALL_OBJECT,Image,False,STIMULI/smallobject/Balloon/Image_071.jpg,2026-02-12 11:59:38.667473,1770915578.667627,1770915579.120874,0.4375279758961313,1770915579.138474,1770915579.6385002,False,,,,,,,,,
p1,72,68,Monkey,SMALL_ANIMAL,Lure,True,STIMULI/smallanimal/Monkey/Lure_068.jpg,2026-02-12 11:59:39.638603,1770915579.638644,1770915580.136118,0.49634878536908733,1770915580.179328,1770915580.679378,False,,,,,,,,,
p1,73,27,Owl,BIRD,Lure,True,STIMULI/BIRD/Owl/Lure_027.jpg,2026-02-12 11:59:40.679498,1770915580.679538,1770915581.033015,0.35221652167795253,1770915581.078567,1770915581.578599,False,,,,,,,,,
p1,74,67,Koala,SMALL_ANIMAL,Lure,True,STIMULI/smallanimal/Koala/Lure_067.jpg,2026-02-12 11:59:41.578745,1770915581.5787892,1770915582.137573,0.557515675983847,1770915582.185736,1770915582.6857479,False,,,,,,,,,
p1,75,93,Boat,VEHICLE,Image,False,STIMULI/VEHICLE/Boat/Image_093.jpg,2026-02-12 11:59:42.685844,1770915582.685875,1770915583.090642,0.40363951433728523,1770915583.1016252,1770915583.601679,False,,,,,,,,,
p1,76,30,Penguin,BIRD,Lure,True,STIMULI/BIRD/Penguin/Lure_030.jpg,2026-02-12 11:59:43.601820,1770915583.601862,1770915584.005099,0.4019439017460938,1770915584.050891,1770915584.550962,False,,,,,,,,,
p1,77,34,Donut,FOOD,Lure,True,STIMULI/FOOD/Donut/Lure_034.jpg,2026-02-12 11:59:44.551097,1770915584.55114,1770915585.301035,0.7486600836103254,1770915585.348292,1770915585.848352,False,,,,,,,,,
p1,78,91,Airplane,VEHICLE,Lure,True,STIMULI/VEHICLE/Airplane/Lure_091.jpg,2026-02-12 11:59:45.848826,1770915585.848873,1770915586.518092,0.66698173984243,1770915586.5604632,1770915587.060522,False,,,,,,,,,
p1,79,20,Phonebooth,BIG_OBJECT,Lure,True,STIMULI/bigobject/Phonebooth/Lure_020.jpg,2026-02-12 11:59:47.060671,1770915587.060718,1770915587.391664,0.3297005058175528,1770915587.440931,1770915587.940937,False,,,,,,,,,
p1,80,79,Key,SMALL_OBJECT,Lure,True,STIMULI/smallobject/Key/Lure_079.jpg,2026-02-12 11:59:47.941069,1770915587.9411159,1770915588.509692,0.5674016001537618,1770915588.5513,1770915589.051372,True,Penguin,Was the last object a penguin?,1770915589.051476,TIMEOUT,False,,True,10.0,
p1,81,4,Cheetah,BIG_ANIMAL,Image,False,STIMULI/biganimal/Cheetah/Image_004.jpg,2026-02-12 12:00:01.144017,1770915601.144198,1770915601.714259,0.5480930521990883,1770915601.729425,1770915602.229534,False,,,,,,,,,
p1,82,19,Mailbox,BIG_OBJECT,Image,False,STIMULI/bigobject/Mailbox/Image_019.jpg,2026-02-12 12:00:02.229773,1770915602.229847,1770915602.656458,0.418634134504975,1770915602.7537,1770915603.253751,False,,,,,,,,,
p1,83,16,Couch,BIG_OBJECT,Image,False,STIMULI/bigobject/Couch/Image_016.jpg,2026-02-12 12:00:03.254606,1770915603.2546408,1770915603.594665,0.33904987592162183,1770915603.685823,1770915604.1859121,False,,,,,,,,,
p1,84,15,coatrack,BIG_OBJECT,Lure,True,STIMULI/bigobject/coatrack/Lure_015.jpg,2026-02-12 12:00:04.186597,1770915604.1868339,1770915604.476959,0.28867364727676587,1770915604.518122,1770915605.018202,False,,,,,,,,,
p1,85,70,Otter,SMALL_ANIMAL,Image,False,STIMULI/smallanimal/Otter/Image_070.jpg,2026-02-12 12:00:05.018341,1770915605.0183969,1770915605.576353,0.5522935805852207,1770915605.652768,1770915606.152846,False,,,,,,,,,
p1,86,15,coatrack,BIG_OBJECT,Image,False,STIMULI/bigobject/coatrack/Image_015.jpg,2026-02-12 12:00:06.152966,1770915606.153013,1770915606.6523058,0.4975488610165425,1770915606.669543,1770915607.169584,False,,,,,,,,,
p1,87,6,Giraffe,BIG_ANIMAL,Image,False,STIMULI/biganimal/Giraffe/Image_006.jpg,2026-02-12 12:00:07.169747,1770915607.169801,1770915607.813982,0.6427871091338019,1770915607.8408608,1770915608.340884,False,,,,,,,,,
p1,88,99,Jetski,VEHICLE,Image,False,STIMULI/VEHICLE/Jetski/Image_099.jpg,2026-02-12 12:00:08.341037,1770915608.341085,1770915608.945175,0.6027425065989325,1770915608.960703,1770915609.460744,False,,,,,,,,,
p1,89,10,Zebra,BIG_ANIMAL,Lure,True,STIMULI/biganimal/Zebra/Lure_010.jpg,2026-02-12 12:00:09.460895,1770915609.460947,1770915610.107732,0.6384231417685751,1770915610.152583,1770915610.6526551,False,,,,,,,,,
p1,90,91,Airplane,VEHICLE,Image,False,STIMULI/VEHICLE/Airplane/Image_091.jpg,2026-02-12 12:00:10.653060,1770915610.653106,1770915611.2639208,0.6091185737187077,1770915611.27631,1770915611.7763321,True,Airplane,Was the last object an airplane?,1770915611.7763531,TIMEOUT,True,,True,10.0,
p1,91,25,Hawk,BIRD,Lure,True,STIMULI/BIRD/Hawk/Lure_025.jpg,2026-02-12 12:00:23.888489,1770915623.888675,1770915624.366731,0.4637587651475454,1770915624.420911,1770915624.9209979,False,,,,,,,,,
p1,92,43,Blueberry,FRUIT,Lure,True,STIMULI/FRUIT/Blueberry/Lure_043.jpg,2026-02-12 12:00:24.921092,1770915624.921129,1770915625.267039,0.3446822012188091,1770915625.3084722,1770915625.808495,False,,,,,,,,,
p1,93,11,Barrel,BIG_OBJECT,Image,False,STIMULI/bigobject/Barrel/Image_011.jpg,2026-02-12 12:00:25.808623,1770915625.808667,1770915626.1906078,0.3806755683430716,1770915626.213065,1770915626.713139,False,,,,,,,,,
p1,94,35,Hotdog,FOOD,Lure,True,STIMULI/FOOD/Hotdog/Lure_035.jpg,2026-02-12 12:00:26.713283,1770915626.713322,1770915626.994533,0.2800509218027575,1770915627.038316,1770915627.538359,False,,,,,,,,,
p1,95,9,Walrus,BIG_ANIMAL,Image,False,STIMULI/biganimal/Walrus/Image_009.jpg,2026-02-12 12:00:27.538515,1770915627.5385642,1770915627.843277,0.30323953344798754,1770915627.868279,1770915628.3683012,False,,,,,,,,,
p1,96,49,Strawberry,FRUIT,Lure,True,STIMULI/FRUIT/Strawberry/Lure_049.jpg,2026-02-12 12:00:28.368430,1770915628.3684669,1770915629.0782459,0.7085575972243991,1770915629.125173,1770915629.625247,False,,,,,,,,,
p1,97,32,Burrito,FOOD,Image,False,STIMULI/FOOD/Burrito/Image_032.jpg,2026-02-12 12:00:29.625490,1770915629.625532,1770915629.9619882,0.33314013034224416,1770915630.0099149,1770915630.509995,False,,,,,,,,,
p1,98,89,Pepper,VEGETABLE,Image,False,STIMULI/VEGETABLE/Pepper/Image_089.jpg,2026-02-12 12:00:30.510123,1770915630.510165,1770915630.891816,0.3804805590041364,1770915631.045295,1770915631.545324,False,,,,,,,,,
p1,99,60,Wasp,INSECT,Image,False,STIMULI/INSECT/Wasp/Image_060.jpg,2026-02-12 12:00:31.545464,1770915631.545509,1770915631.919799,0.3724817795949554,1770915631.992393,1770915632.492414,False,,,,,,,,,
p1,100,24,Goose,BIRD,Lure,True,STIMULI/BIRD/Goose/Lure_024.jpg,2026-02-12 12:00:32.492510,1770915632.492546,1770915632.8815649,0.38769161445619965,1770915632.932538,1770915633.432557,True,Goose,Was the last object a goose?,1770915633.4325619,TIMEOUT,True,,True,10.0,
p1,101,44,Coconut,FRUIT,Image,False,STIMULI/FRUIT/Coconut/Image_044.jpg,2026-02-12 12:00:45.534737,1770915645.5348852,1770915646.068851,0.5164760230442612,1770915646.125942,1770915646.626046,False,,,,,,,,,
p1,102,76,Football,SMALL_OBJECT,Lure,True,STIMULI/smallobject/Football/Lure_076.jpg,2026-02-12 12:00:46.626201,1770915646.626246,1770915647.0579379,0.42979110985171887,1770915647.105574,1770915647.605649,False,,,,,,,,,
p1,103,17,filingcabinet,BIG_OBJECT,Image,False,STIMULI/bigobject/filingcabinet/Image_017.jpg,2026-02-12 12:00:47.605803,1770915647.605845,1770915648.342647,0.7356028704442019,1770915648.352916,1770915648.85295,False,,,,,,,,,
p1,104,77,Glasses,SMALL_OBJECT,Lure,True,STIMULI/smallobject/Glasses/Lure_077.jpg,2026-02-12 12:00:48.853081,1770915648.853128,1770915649.1979399,0.34269127800912,1770915649.23599,1770915649.736059,False,,,,,,,,,
p1,105,47,Peach,FRUIT,Image,False,STIMULI/FRUIT/Peach/Image_047.jpg,2026-02-12 12:00:49.736169,1770915649.736207,1770915650.125939,0.3883256977207014,1770915650.131752,1770915650.631818,False,,,,,,,,,
p1,106,3,Camel,BIG_ANIMAL,Lure,True,STIMULI/biganimal/Camel/Lure_003.jpg,2026-02-12 12:00:50.631965,1770915650.6320078,1770915651.152278,0.5188586578617047,1770915651.232275,1770915651.7323709,False,,,,,,,,,
p1,107,96,cruiseship,VEHICLE,Lure,True,STIMULI/VEHICLE/cruiseship/Lure_096.jpg,2026-02-12 12:00:51.733295,1770915651.7333372,1770915652.073992,0.3395951329508088,1770915652.115926,1770915652.616009,False,,,,,,,,,
p1,108,26,Hummingbird,BIRD,Image,False,STIMULI/BIRD/Hummingbird/Image_026.jpg,2026-02-12 12:00:52.616145,1770915652.6161878,1770915653.348404,0.7306762855427109,1770915653.3678231,1770915653.867908,False,,,,,,,,,
p1,109,75,Envelope,SMALL_OBJECT,Lure,True,STIMULI/smallobject/Envelope/Lure_075.jpg,2026-02-12 12:00:53.868037,1770915653.8680792,1770915654.242421,0.3721361977759632,1770915654.2947369,1770915654.7947562,False,,,,,,,,,
p1,110,65,Groundhog,SMALL_ANIMAL,Lure,True,STIMULI/smallanimal/Groundhog/Lure_065.jpg,2026-02-12 12:00:54.794890,1770915654.794932,1770915655.533203,0.7370130392661023,1770915655.584476,1770915656.0845351,True,cruiseship,Was the last object a cruiseship?,1770915656.0846348,TIMEOUT,False,,True,10.0,
p1,111,64,Frog,SMALL_ANIMAL,Image,False,STIMULI/smallanimal/Frog/Image_064.jpg,2026-02-12 12:01:08.146038,1770915668.146134,1770915668.4331572,0.27818433032030787,1770915668.4503,1770915668.95037,False,,,,,,,,,
p1,112,83,Avocado,VEGETABLE,Lure,True,STIMULI/VEGETABLE/Avocado/Lure_083.jpg,2026-02-12 12:01:08.950504,1770915668.95055,1770915669.227606,0.27561999430070755,1770915669.27227,1770915669.772288,False,,,,,,,,,
p1,113,84,Basil,VEGETABLE,Lure,True,STIMULI/VEGETABLE/Basil/Lure_084.jpg,2026-02-12 12:01:09.772370,1770915669.772407,1770915670.209149,0.4356319922995388,1770915670.253218,1770915670.753283,False,,,,,,,,,
p1,114,17,filingcabinet,BIG_OBJECT,Lure,True,STIMULI/bigobject/filingcabinet/Lure_017.jpg,2026-02-12 12:01:10.753450,1770915670.7534919,1770915671.099482,0.344819314060439,1770915671.14274,1770915671.642752,False,,,,,,,,,
p1,115,69,Mouse,SMALL_ANIMAL,Image,False,STIMULI/smallanimal/Mouse/Image_069.jpg,2026-02-12 12:01:11.642867,1770915671.6429079,1770915672.083974,0.4398767617603354,1770915672.1410758,1770915672.641162,False,,,,,,,,,
p1,116,100,Van,VEHICLE,Image,False,STIMULI/VEHICLE/Van/Image_100.jpg,2026-02-12 12:01:12.641289,1770915672.641338,1770915672.9569762,0.31402952320877936,1770915672.995432,1770915673.495492,False,,,,,,,,,
p1,117,12,Bench,BIG_OBJECT,Lure,True,STIMULI/bigobject/Bench/Lure_012.jpg,2026-02-12 12:01:13.495608,1770915673.495656,1770915674.090307,0.5932693971403873,1770915674.139439,1770915674.639533,False,,,,,,,,,
p1,118,57,Fly,INSECT,Lure,True,STIMULI/INSECT/Fly/Lure_057.jpg,2026-02-12 12:01:14.640069,1770915674.64012,1770915674.9296992,0.2883390665960667,1770915674.97431,1770915675.474379,False,,,,,,,,,
p1,119,59,Moth,INSECT,Image,False,STIMULI/INSECT/Moth/Image_059.jpg,2026-02-12 12:01:15.474531,1770915675.474581,1770915676.006279,0.5305173829476706,1770915676.0206761,1770915676.52074,False,,,,,,,,,
p1,120,63,Dog,SMALL_ANIMAL,Image,False,STIMULI/smallanimal/Dog/Image_063.jpg,2026-02-12 12:01:16.520867,1770915676.520925,1770915677.11445,0.5912354802587894,1770915677.128187,1770915677.628265,True,Basil,Was the last object a basil?,1770915677.628355,TIMEOUT,False,,True,10.0,
p1,121,39,Pizza,FOOD,Lure,True,STIMULI/FOOD/Pizza/Lure_039.jpg,2026-02-12 12:01:29.721874,1770915689.721928,1770915690.0417101,0.29080039977006494,1770915690.103852,1770915690.6039512,False,,,,,,,,,
p1,122,84,Basil,VEGETABLE,Image,False,STIMULI/VEGETABLE/Basil/Image_084.jpg,2026-02-12 12:01:30.604144,1770915690.604225,1770915690.8562171,0.2504953677317997,1770915690.8729768,1770915691.3730402,False,,,,,,,,,
p1,123,97,Helicopter,VEHICLE,Lure,True,STIMULI/VEHICLE/Helicopter/Lure_097.jpg,2026-02-12 12:01:31.373204,1770915691.37325,1770915691.63421,0.2596218323299767,1770915691.680009,1770915692.180091,False,,,,,,,,,
p1,124,2,Alpaca,BIG_ANIMAL,Image,False,STIMULI/biganimal/Alpaca/Image_002.jpg,2026-02-12 12:01:32.180251,1770915692.180296,1770915692.514912,0.33320224857595815,1770915692.531326,1770915693.031424,False,,,,,,,,,
p1,125,48,Pineapple,FRUIT,Image,False,STIMULI/FRUIT/Pineapple/Image_048.jpg,2026-02-12 12:01:33.031561,1770915693.031606,1770915693.388809,0.35350101108023285,1770915693.598282,1770915694.098335,False,,,,,,,,,
p1,126,21,Chicken,BIRD,Image,False,STIMULI/BIRD/Chicken/Image_021.jpg,2026-02-12 12:01:34.098476,1770915694.098528,1770915694.647019,0.5459002688282129,1770915694.6569889,1770915695.1570601,False,,,,,,,,,
p1,127,40,Soup,FOOD,Lure,True,STIMULI/FOOD/Soup/Lure_040.jpg,2026-02-12 12:01:35.157198,1770915695.1572502,1770915695.7488902,0.5902422761031207,1770915695.79081,1770915696.2908852,False,,,,,,,,,
p1,128,96,cruiseship,VEHICLE,Image,False,STIMULI/VEHICLE/cruiseship/Image_096.jpg,2026-02-12 12:01:36.291446,1770915696.2914891,1770915696.793984,0.5012058886957598,1770915696.807589,1770915697.3076532,False,,,,,,,,,
p1,129,66,Iguana,SMALL_ANIMAL,Lure,True,STIMULI/smallanimal/Iguana/Lure_066.jpg,2026-02-12 12:01:37.307755,1770915697.307792,1770915697.671057,0.3615244989902561,1770915697.727798,1770915698.227825,False,,,,,,,,,
p1,130,43,Blueberry,FRUIT,Image,False,STIMULI/FRUIT/Blueberry/Image_043.jpg,2026-02-12 12:01:38.227971,1770915698.228014,1770915698.704609,0.47516170793121915,1770915698.768663,1770915699.2687309,True,Blueberry,Was the last object a blueberry?,1770915699.268738,TIMEOUT,True,,True,10.0,
p1,131,13,Chair,BIG_OBJECT,Lure,True,STIMULI/bigobject/Chair/Lure_013.jpg,2026-02-12 12:01:51.355897,1770915711.356008,1770915711.8058188,0.42633949777200797,1770915711.857497,1770915712.357507,False,,,,,,,,,
p1,132,88,Kale,VEGETABLE,Image,False,STIMULI/VEGETABLE/Kale/Image_088.jpg,2026-02-12 12:01:52.357629,1770915712.3576589,1770915712.886016,0.5272654571376892,1770915712.909892,1770915713.409983,False,,,,,,,,,
p1,133,2,Alpaca,BIG_ANIMAL,Lure,True,STIMULI/biganimal/Alpaca/Lure_002.jpg,2026-02-12 12:01:53.410134,1770915713.41018,1770915714.063169,0.6515777210610957,1770915714.1141398,1770915714.614208,False,,,,,,,,,
p1,134,26,Hummingbird,BIRD,Lure,True,STIMULI/BIRD/Hummingbird/Lure_026.jpg,2026-02-12 12:01:54.614336,1770915714.614379,1770915714.922577,0.30549910901412447,1770915714.971523,1770915715.47155,False,,,,,,,,,
p1,135,6,Giraffe,BIG_ANIMAL,Lure,True,STIMULI/biganimal/Giraffe/Lure_006.jpg,2026-02-12 12:01:55.471689,1770915715.471738,1770915715.993081,0.5198282719802605,1770915716.0370948,1770915716.5371761,False,,,,,,,,,
p1,136,66,Iguana,SMALL_ANIMAL,Image,False,STIMULI/smallanimal/Iguana/Image_066.jpg,2026-02-12 12:01:56.537281,1770915716.53733,1770915716.871236,0.33225031653438486,1770915716.890263,1770915717.390356,False,,,,,,,,,
p1,137,50,Watermelon,FRUIT,Lure,True,STIMULI/FRUIT/Watermelon/Lure_050.jpg,2026-02-12 12:01:57.390459,1770915717.390505,1770915718.089362,0.6976230230996148,1770915718.140325,1770915718.6404321,False,,,,,,,,,
p1,138,7,Hippopotamus,BIG_ANIMAL,Lure,True,STIMULI/biganimal/Hippopotamus/Lure_007.jpg,2026-02-12 12:01:58.641019,1770915718.641068,1770915719.182538,0.5382142866571924,1770915719.2284539,1770915719.728496,False,,,,,,,,,
p1,139,7,Hippopotamus,BIG_ANIMAL,Image,False,STIMULI/biganimal/Hippopotamus/Image_007.jpg,2026-02-12 12:01:59.728646,1770915719.728689,1770915720.217696,0.48704166587404263,1770915720.2315252,1770915720.7316139,False,,,,,,,,,
p1,140,78,Globe,SMALL_OBJECT,Lure,True,STIMULI/smallobject/Globe/Lure_078.jpg,2026-02-12 12:02:00.731708,1770915720.731741,1770915721.35617,0.6233072250206672,1770915721.4004538,1770915721.900464,True,Globe,Was the last object a globe?,1770915721.90047,TIMEOUT,True,,True,10.0,
p1,141,50,Watermelon,FRUIT,Image,False,STIMULI/FRUIT/Watermelon/Image_050.jpg,2026-02-12 12:02:13.989312,1770915733.989558,1770915734.3220658,0.32135007540950494,1770915734.336155,1770915734.836215,False,,,,,,,,,
p1,142,28,Parrot,BIRD,Lure,True,STIMULI/BIRD/Parrot/Lure_028.jpg,2026-02-12 12:02:14.836390,1770915734.836457,1770915735.335541,0.49716828754335385,1770915735.375694,1770915735.8757918,False,,,,,,,,,
p1,143,61,Beaver,SMALL_ANIMAL,Lure,True,STIMULI/smallanimal/Beaver/Lure_061.jpg,2026-02-12 12:02:15.875890,1770915735.875919,1770915736.4944088,0.6173956184994707,1770915736.5410151,1770915737.041033,False,,,,,,,,,
p1,144,52,Bee,INSECT,Image,False,STIMULI/INSECT/Bee/Image_052.jpg,2026-02-12 12:02:17.041124,1770915737.041157,1770915737.318629,0.2746447894202918,1770915737.33218,1770915737.832212,False,,,,,,,,,
p1,145,8,Horse,BIG_ANIMAL,Lure,True,STIMULI/biganimal/Horse/Lure_008.jpg,2026-02-12 12:02:17.832341,1770915737.832384,1770915738.095988,0.2621627988807873,1770915738.138792,1770915738.6388512,False,,,,,,,,,
p1,146,24,Goose,BIRD,Image,False,STIMULI/BIRD/Goose/Image_024.jpg,2026-02-12 12:02:18.638985,1770915738.639036,1770915739.075018,0.43474472778496714,1770915739.087289,1770915739.587311,False,,,,,,,,,
p1,147,63,Dog,SMALL_ANIMAL,Lure,True,STIMULI/smallanimal/Dog/Lure_063.jpg,2026-02-12 12:02:19.587670,1770915739.587714,1770915740.154389,0.5654225908282021,1770915740.19536,1770915740.695391,False,,,,,,,,,
p1,148,70,Otter,SMALL_ANIMAL,Lure,True,STIMULI/smallanimal/Otter/Lure_070.jpg,2026-02-12 12:02:20.695541,1770915740.6956182,1770915741.1923,0.4944623414205917,1770915741.2350872,1770915741.7350972,False,,,,,,,,,
p1,149,72,Basket,SMALL_OBJECT,Lure,True,STIMULI/smallobject/Basket/Lure_072.jpg,2026-02-12 12:02:21.735226,1770915741.735272,1770915742.376626,0.6396196200816504,1770915742.418466,1770915742.9185028,False,,,,,,,,,
p1,150,37,Pasta,FOOD,Image,False,STIMULI/FOOD/Pasta/Image_037.jpg,2026-02-12 12:02:22.918647,1770915742.918695,1770915743.658713,0.7364677332410112,1770915743.6746528,1770915744.1747131,True,Pasta,Was the last object a pasta?,1770915744.174743,TIMEOUT,True,,True,10.0,
p1,151,28,Parrot,BIRD,Image,False,STIMULI/BIRD/Parrot/Image_028.jpg,2026-02-12 12:02:36.268179,1770915756.268231,1770915756.896851,0.6223535117904249,1770915756.904611,1770915757.4047139,False,,,,,,,,,
p1,152,56,Caterpillar,INSECT,Lure,True,STIMULI/INSECT/Caterpillar/Lure_056.jpg,2026-02-12 12:02:37.404858,1770915757.404897,1770915758.126283,0.7187352936049836,1770915758.177247,1770915758.677265,False,,,,,,,,,
p1,153,36,icecream,FOOD,Lure,True,STIMULI/FOOD/icecream/Lure_036.jpg,2026-02-12 12:02:38.677442,1770915758.677509,1770915759.394654,0.7145810165406785,1770915759.4418051,1770915759.9418721,False,,,,,,,,,
p1,154,23,Flamingo,BIRD,Image,False,STIMULI/BIRD/Flamingo/Image_023.jpg,2026-02-12 12:02:39.942004,1770915759.9420512,1770915760.42424,0.47898609062115227,1770915760.4348521,1770915760.934888,False,,,,,,,,,
p1,155,16,Couch,BIG_OBJECT,Lure,True,STIMULI/bigobject/Couch/Lure_016.jpg,2026-02-12 12:02:40.935011,1770915760.935057,1770915761.443557,0.5072770988139907,1770915761.486687,1770915761.986772,False,,,,,,,,,
p1,156,33,Cake,FOOD,Lure,True,STIMULI/FOOD/Cake/Lure_033.jpg,2026-02-12 12:02:41.987073,1770915761.9871202,1770915762.7273018,0.7385426501846184,1770915762.774963,1770915763.27501,False,,,,,,,,,
p1,157,85,Bean,VEGETABLE,Lure,True,STIMULI/VEGETABLE/Bean/Lure_085.jpg,2026-02-12 12:02:43.275149,1770915763.275195,1770915763.5670369,0.28889857008962117,1770915763.6124392,1770915764.112448,False,,,,,,,,,
p1,158,93,Boat,VEHICLE,Lure,True,STIMULI/VEHICLE/Boat/Lure_093.jpg,2026-02-12 12:02:44.112582,1770915764.112631,1770915764.714509,0.599938899182477,1770915764.7618601,1770915765.2618802,False,,,,,,,,,
p1,159,5,Elephant,BIG_ANIMAL,Image,False,STIMULI/biganimal/Elephant/Image_005.jpg,2026-02-12 12:02:45.262032,1770915765.26209,1770915765.6742349,0.4091930346410441,1770915765.6876411,1770915766.187712,False,,,,,,,,,
p1,160,77,Glasses,SMALL_OBJECT,Image,False,STIMULI/smallobject/Glasses/Image_077.jpg,2026-02-12 12:02:46.187855,1770915766.1878998,1770915766.934787,0.7454677490792585,1770915766.947438,1770915767.4475079,True,hottub,Was the last object a hottub?,1770915767.447602,TIMEOUT,False,,True,10.0,
p1,161,41,Apple,FRUIT,Image,False,STIMULI/FRUIT/Apple/Image_041.jpg,2026-02-12 12:02:59.552654,1770915779.55283,1770915779.886503,0.30743466345417675,1770915779.920073,1770915780.420172,False,,,,,,,,,
p1,162,98,Jeep,VEHICLE,Lure,True,STIMULI/VEHICLE/Jeep/Lure_098.jpg,2026-02-12 12:03:00.420284,1770915780.420331,1770915780.839415,0.4177727471948591,1770915780.882328,1770915781.382387,False,,,,,,,,,
p1,163,48,Pineapple,FRUIT,Lure,True,STIMULI/FRUIT/Pineapple/Lure_048.jpg,2026-02-12 12:03:01.382520,1770915781.382572,1770915781.886996,0.5030362455836548,1770915781.931703,1770915782.4317272,False,,,,,,,,,
p1,164,67,Koala,SMALL_ANIMAL,Image,False,STIMULI/smallanimal/Koala/Image_067.jpg,2026-02-12 12:03:02.431834,1770915782.4318678,1770915782.808558,0.37559502075464646,1770915782.824085,1770915783.324147,False,,,,,,,,,
p1,165,82,Asparagus,VEGETABLE,Image,False,STIMULI/VEGETABLE/Asparagus/Image_082.jpg,2026-02-12 12:03:03.324274,1770915783.324318,1770915783.831028,0.5051318641632581,1770915783.861347,1770915784.361411,False,,,,,,,,,
p1,166,58,Mosquito,INSECT,Image,False,STIMULI/INSECT/Mosquito/Image_058.jpg,2026-02-12 12:03:04.361544,1770915784.361589,1770915784.859133,0.4960528303089295,1770915784.9065511,1770915785.40656,False,,,,,,,,,
p1,167,54,Bug,INSECT,Image,False,STIMULI/INSECT/Bug/Image_054.jpg,2026-02-12 12:03:05.406835,1770915785.4068842,1770915785.886208,0.47792126384418054,1770915785.894956,1770915786.394988,False,,,,,,,,,
p1,168,87,Carrot,VEGETABLE,Image,False,STIMULI/VEGETABLE/Carrot/Image_087.jpg,2026-02-12 12:03:06.395117,1770915786.3951612,1770915786.841229,0.44471040460021766,1770915786.8556,1770915787.355694,False,,,,,,,,,
p1,169,62,Cat,SMALL_ANIMAL,Image,False,STIMULI/smallanimal/Cat/Image_062.jpg,2026-02-12 12:03:07.355853,1770915787.3559098,1770915787.763592,0.40541509510793056,1770915787.7746,1770915788.274676,False,,,,,,,,,
p1,170,94,Bus,VEHICLE,Lure,True,STIMULI/VEHICLE/Bus/Lure_094.jpg,2026-02-12 12:03:08.274803,1770915788.274844,1770915788.7644842,0.4883173940418372,1770915788.817703,1770915789.317756,True,Parrot,Was the last object a parrot?,1770915789.317853,TIMEOUT,False,,True,10.0,
p1,171,40,Soup,FOOD,Image,False,STIMULI/FOOD/Soup/Image_040.jpg,2026-02-12 12:03:21.397583,1770915801.397739,1770915801.8976588,0.48038616026209563,1770915801.9224472,1770915802.422461,False,,,,,,,,,
p1,172,39,Pizza,FOOD,Image,False,STIMULI/FOOD/Pizza/Image_039.jpg,2026-02-12 12:03:22.422558,1770915802.4225879,1770915802.904777,0.48102125921913286,1770915802.915649,1770915803.415667,False,,,,,,,,,
p1,173,80,Lamp,SMALL_OBJECT,Lure,True,STIMULI/smallobject/Lamp/Lure_080.jpg,2026-02-12 12:03:23.415795,1770915803.4158452,1770915804.092528,0.6752354040143655,1770915804.127858,1770915804.627895,False,,,,,,,,,
p1,174,55,Butterfly,INSECT,Lure,True,STIMULI/INSECT/Butterfly/Lure_055.jpg,2026-02-12 12:03:24.628036,1770915804.628082,1770915805.228341,0.5984755181328498,1770915805.272074,1770915805.772106,False,,,,,,,,,
p1,175,97,Helicopter,VEHICLE,Image,False,STIMULI/VEHICLE/Helicopter/Image_097.jpg,2026-02-12 12:03:25.772229,1770915805.77227,1770915806.51189,0.7384161672048812,1770915806.548769,1770915807.048803,False,,,,,,,,,
p1,176,78,Globe,SMALL_OBJECT,Image,False,STIMULI/smallobject/Globe/Image_078.jpg,2026-02-12 12:03:27.048935,1770915807.048982,1770915807.614768,0.5635744546848915,1770915807.624037,1770915808.124071,False,,,,,,,,,
p1,177,81,Arugula,VEGETABLE,Lure,True,STIMULI/VEGETABLE/Arugula/Lure_081.jpg,2026-02-12 12:03:28.124646,1770915808.1246898,1770915808.740822,0.6148242909265974,1770915808.7836852,1770915809.2837691,False,,,,,,,,,
p1,178,92,Bike,VEHICLE,Lure,True,STIMULI/VEHICLE/Bike/Lure_092.jpg,2026-02-12 12:03:29.283907,1770915809.283957,1770915809.9981282,0.7115694725291525,1770915810.045922,1770915810.545954,False,,,,,,,,,
p1,179,1,Alligator,BIG_ANIMAL,Image,False,STIMULI/biganimal/Alligator/Image_001.jpg,2026-02-12 12:03:30.546065,1770915810.5461051,1770915811.291339,0.7431460573978426,1770915811.305521,1770915811.805588,False,,,,,,,,,
p1,180,31,Bagel,FOOD,Lure,True,STIMULI/FOOD/Bagel/Lure_031.jpg,2026-02-12 12:03:31.805731,1770915811.805782,1770915812.096525,0.28758653144853163,1770915812.1465652,1770915812.646645,True,Basket,Was the last object a basket?,1770915812.6467772,TIMEOUT,False,,True,10.0,
p1,181,46,Orange,FRUIT,Image,False,STIMULI/FRUIT/Orange/Image_046.jpg,2026-02-12 12:03:44.742332,1770915824.7424011,1770915825.178603,0.42404616528324385,1770915825.200053,1770915825.700087,False,,,,,,,,,
p1,182,14,Chandelier,BIG_OBJECT,Image,False,STIMULI/bigobject/Chandelier/Image_014.jpg,2026-02-12 12:03:45.700233,1770915825.700278,1770915826.3883011,0.6866309982080355,1770915826.4102058,1770915826.9102452,False,,,,,,,,,
p1,183,74,Camera,SMALL_OBJECT,Image,False,STIMULI/smallobject/Camera/Image_074.jpg,2026-02-12 12:03:46.910376,1770915826.9104168,1770915827.3711,0.4561570338478671,1770915827.382174,1770915827.8822331,False,,,,,,,,,
p1,184,100,Van,VEHICLE,Lure,True,STIMULI/VEHICLE/Van/Lure_100.jpg,2026-02-12 12:03:47.882365,1770915827.882408,1770915828.296051,0.4124256832918593,1770915828.337155,1770915828.837253,False,,,,,,,,,
p1,185,29,Peacock,BIRD,Lure,True,STIMULI/BIRD/Peacock/Lure_029.jpg,2026-02-12 12:03:48.837397,1770915828.83744,1770915829.469835,0.6310543091255569,1770915829.523272,1770915830.023314,False,,,,,,,,,
p1,186,58,Mosquito,INSECT,Lure,True,STIMULI/INSECT/Mosquito/Lure_058.jpg,2026-02-12 12:03:50.023466,1770915830.0235362,1770915830.648731,0.6198438035372007,1770915830.696577,1770915831.196668,False,,,,,,,,,
p1,187,53,Beetle,INSECT,Image,False,STIMULI/INSECT/Beetle/Image_053.jpg,2026-02-12 12:03:51.197103,1770915831.197186,1770915831.8349462,0.6361624332276167,1770915831.9398751,1770915832.4399118,False,,,,,,,,,
p1,188,90,Squash,VEGETABLE,Lure,True,STIMULI/VEGETABLE/Squash/Lure_090.jpg,2026-02-12 12:03:52.440010,1770915832.440052,1770915832.975026,0.5308157799240005,1770915833.0198772,1770915833.519959,False,,,,,,,,,
p1,189,34,Donut,FOOD,Image,False,STIMULI/FOOD/Donut/Image_034.jpg,2026-02-12 12:03:53.520109,1770915833.52015,1770915834.258274,0.735463001552882,1770915834.27405,1770915834.774104,False,,,,,,,,,
p1,190,13,Chair,BIG_OBJECT,Image,False,STIMULI/bigobject/Chair/Image_013.jpg,2026-02-12 12:03:54.774272,1770915834.774314,1770915835.516402,0.740258983964301,1770915835.5344481,1770915836.0345118,True,Dog,Was the last object a dog?,1770915836.034652,TIMEOUT,False,,True,10.0,
p1,191,86,bokchoy,VEGETABLE,Image,False,STIMULI/VEGETABLE/bokchoy/Image_086.jpg,2026-02-12 12:04:08.135115,1770915848.135296,1770915848.594649,0.4394923724980598,1770915848.613825,1770915849.113867,False,,,,,,,,,
p1,192,4,Cheetah,BIG_ANIMAL,Lure,True,STIMULI/biganimal/Cheetah/Lure_004.jpg,2026-02-12 12:04:09.114023,1770915849.114066,1770915849.7182631,0.6028912168254739,1770915849.764121,1770915850.264201,False,,,,,,,,,
p1,193,49,Strawberry,FRUIT,Image,False,STIMULI/FRUIT/Strawberry/Image_049.jpg,2026-02-12 12:04:10.264326,1770915850.264369,1770915850.621255,0.3552387534322875,1770915850.643344,1770915851.143383,False,,,,,,,,,
p1,194,86,bokchoy,VEGETABLE,Lure,True,STIMULI/VEGETABLE/bokchoy/Lure_086.jpg,2026-02-12 12:04:11.143523,1770915851.143571,1770915851.565891,0.42087255527978296,1770915851.608618,1770915852.10863,False,,,,,,,,,
p1,195,33,Cake,FOOD,Image,False,STIMULI/FOOD/Cake/Image_033.jpg,2026-02-12 12:04:12.108797,1770915852.108841,1770915852.614772,0.5047898146316885,1770915852.630072,1770915853.130177,False,,,,,,,,,
p1,196,92,Bike,VEHICLE,Image,False,STIMULI/VEHICLE/Bike/Image_092.jpg,2026-02-12 12:04:13.130323,1770915853.1303658,1770915853.5080981,0.3763838021571311,1770915853.5325341,1770915854.032562,False,,,,,,,,,
p1,197,18,hottub,BIG_OBJECT,Image,False,STIMULI/bigobject/hottub/Image_018.jpg,2026-02-12 12:04:14.033114,1770915854.033171,1770915854.544001,0.5098497202923391,1770915854.554623,1770915855.054684,False,,,,,,,,,
p1,198,22,Duck,BIRD,Image,False,STIMULI/BIRD/Duck/Image_022.jpg,2026-02-12 12:04:15.054857,1770915855.054925,1770915855.752438,0.6957525650199354,1770915855.76647,1770915856.2665129,False,,,,,,,,,
p1,199,56,Caterpillar,INSECT,Image,False,STIMULI/INSECT/Caterpillar/Image_056.jpg,2026-02-12 12:04:16.266648,1770915856.266696,1770915856.851769,0.5813913262301003,1770915856.927291,1770915857.4273422,False,,,,,,,,,
p1,200,59,Moth,INSECT,Lure,True,STIMULI/INSECT/Moth/Lure_059.jpg,2026-02-12 12:04:17.427493,1770915857.42754,1770915857.861144,0.4307782736557751,1770915857.906602,1770915858.4066188,True,Moth,Was the last object a moth?,1770915858.406626,TIMEOUT,True,,True,10.0,
