participant_id,trial,stimulus_number,object_name,category,stimulus_type,is_lure,image_path,presentation_time,localizer_fixation_onset_trigger,localizer_fixation_offset_trigger,fixation_duration,localizer_image_onset_trigger,localizer_image_offset_trigger,is_question_trial,question_object,question_text,question_trigger,question_answer_trigger,answer,correct_answer,correct,timed_out,response_time,answer_click_time
PPT,1,86,bokchoy,VEGETABLE,Image,False,STIMULI\VEGETABLE\bokchoy\Image_086.jpg,2026-02-16 08:42:18.458547,1771260137.7612207,1771260138.4387057,0.6433451294273043,1771260138.5419745,1771260139.0740788,False,,,,,,,,,,
PPT,2,6,Giraffe,BIG_ANIMAL,Lure,True,STIMULI\biganimal\Giraffe\Lure_006.jpg,2026-02-16 08:42:19.097270,1771260139.105234,1771260139.4280949,0.29976220065624215,1771260139.514097,1771260140.0450346,False,,,,,,,,,,
PPT,3,42,Banana,FRUIT,Lure,True,STIMULI\FRUIT\Banana\Lure_042.jpg,2026-02-16 08:42:20.066751,1771260140.0728292,1771260140.4959438,0.40038248727086106,1771260140.6182833,1771260141.147483,False,,,,,,,,,,
PPT,4,70,Otter,SMALL_ANIMAL,Lure,True,STIMULI\smallanimal\Otter\Lure_070.jpg,2026-02-16 08:42:21.169735,1771260141.1833477,1771260141.5661604,0.35370401697124476,1771260141.6602244,1771260142.1816595,False,,,,,,,,,,
PPT,5,67,Koala,SMALL_ANIMAL,Image,False,STIMULI\smallanimal\Koala\Image_067.jpg,2026-02-16 08:42:22.203526,1771260142.2165177,1771260142.7573507,0.5071900866778027,1771260142.8064718,1771260143.3331637,False,,,,,,,,,,
PPT,6,66,Iguana,SMALL_ANIMAL,Image,False,STIMULI\smallanimal\Iguana\Image_066.jpg,2026-02-16 08:42:23.354105,1771260143.3664563,1771260143.967377,0.562962066488359,1771260144.0462704,1771260144.56697,False,,,,,,,,,,
PPT,7,82,Asparagus,VEGETABLE,Image,False,STIMULI\VEGETABLE\Asparagus\Image_082.jpg,2026-02-16 08:42:24.588248,1771260144.5998466,1771260145.3141136,0.6814038673282872,1771260145.4202816,1771260145.9488616,False,,,,,,,,,,
PPT,8,32,Burrito,FOOD,Image,False,STIMULI\FOOD\Burrito\Image_032.jpg,2026-02-16 08:42:25.969521,1771260145.9836903,1771260146.3427744,0.3251359825221336,1771260146.4364111,1771260146.9686437,False,,,,,,,,,,
PPT,9,95,Car,VEHICLE,Image,False,STIMULI\VEHICLE\Car\Image_095.jpg,2026-02-16 08:42:26.987307,1771260147.0003633,1771260147.7542658,0.7124816602613621,1771260147.824733,1771260148.3466647,False,,,,,,,,,,
PPT,10,10,Zebra,BIG_ANIMAL,Lure,True,STIMULI\biganimal\Zebra\Lure_010.jpg,2026-02-16 08:42:28.369436,1771260148.3836944,1771260148.8528738,0.4355441155499512,1771260148.971056,1771260149.5010457,True,Strawberry,Was the last object a strawberry?,1771260149.6311772,1771260152.4915195,False,False,True,False,2.846368200145662,1771260152.4817002
PPT,11,74,Camera,SMALL_OBJECT,Image,False,STIMULI\smallobject\Camera\Image_074.jpg,2026-02-16 08:42:32.829504,1771260152.8350124,1771260153.1836112,0.32485559219011795,1771260153.236567,1771260153.7585766,False,,,,,,,,,,
PPT,12,47,Peach,FRUIT,Image,False,STIMULI\FRUIT\Peach\Image_047.jpg,2026-02-16 08:42:33.779783,1771260153.7918928,1771260154.5033677,0.6767765272582178,1771260154.547496,1771260155.0739055,False,,,,,,,,,,
PPT,13,38,Pie,FOOD,Image,False,STIMULI\FOOD\Pie\Image_038.jpg,2026-02-16 08:42:35.093503,1771260155.1081738,1771260155.3954499,0.25664164103690745,1771260155.4656339,1771260155.994499,False,,,,,,,,,,
PPT,14,7,Hippopotamus,BIG_ANIMAL,Image,False,STIMULI\biganimal\Hippopotamus\Image_007.jpg,2026-02-16 08:42:36.016758,1771260156.0253296,1771260156.5602577,0.5020133606712611,1771260156.6285107,1771260157.1638486,False,,,,,,,,,,
PPT,15,45,Mulberry,FRUIT,Lure,True,STIMULI\FRUIT\Mulberry\Lure_045.jpg,2026-02-16 08:42:37.185729,1771260157.1919744,1771260157.8246822,0.5962853888403674,1771260157.9664829,1771260158.4941537,False,,,,,,,,,,
PPT,16,57,Fly,INSECT,Lure,True,STIMULI\INSECT\Fly\Lure_057.jpg,2026-02-16 08:42:38.521917,1771260158.5271883,1771260159.0930262,0.5330750836393825,1771260159.2242668,1771260159.7554443,False,,,,,,,,,,
PPT,17,78,Globe,SMALL_OBJECT,Lure,True,STIMULI\smallobject\Globe\Lure_078.jpg,2026-02-16 08:42:39.776879,1771260159.791505,1771260160.2516294,0.4308990314693345,1771260160.3400471,1771260160.8556776,False,,,,,,,,,,
PPT,18,96,cruiseship,VEHICLE,Image,False,STIMULI\VEHICLE\cruiseship\Image_096.jpg,2026-02-16 08:42:40.872326,1771260160.8743384,1771260161.1668723,0.2695636079362608,1771260161.198629,1771260161.7258441,False,,,,,,,,,,
PPT,19,65,Groundhog,SMALL_ANIMAL,Image,False,STIMULI\smallanimal\Groundhog\Image_065.jpg,2026-02-16 08:42:41.744511,1771260161.758682,1771260162.1143887,0.3243143532923698,1771260162.187587,1771260162.7078977,False,,,,,,,,,,
PPT,20,72,Basket,SMALL_OBJECT,Lure,True,STIMULI\smallobject\Basket\Lure_072.jpg,2026-02-16 08:42:42.727807,1771260162.7415028,1771260163.0715165,0.3001957243619415,1771260163.2338948,1771260163.7688806,True,Basket,Was the last object a basket?,1771260163.9173486,1771260167.0836115,True,True,True,False,3.123925599968061,1771260167.0716128
PPT,21,92,Bike,VEHICLE,Image,False,STIMULI\VEHICLE\Bike\Image_092.jpg,2026-02-16 08:42:47.420852,1771260167.427375,1771260168.1018977,0.6457896997158195,1771260168.1835754,1771260168.7181325,False,,,,,,,,,,
PPT,22,15,coatrack,BIG_OBJECT,Lure,True,STIMULI\bigobject\coatrack\Lure_015.jpg,2026-02-16 08:42:48.740059,1771260168.749822,1771260169.2969418,0.5131444779420684,1771260169.3926408,1771260169.9145827,False,,,,,,,,,,
PPT,23,45,Mulberry,FRUIT,Image,False,STIMULI\FRUIT\Mulberry\Image_045.jpg,2026-02-16 08:42:49.923583,1771260169.933131,1771260170.378447,0.41290680119449674,1771260170.4405081,1771260170.964243,False,,,,,,,,,,
PPT,24,55,Butterfly,INSECT,Image,False,STIMULI\INSECT\Butterfly\Image_055.jpg,2026-02-16 08:42:50.985321,1771260170.999822,1771260171.5178013,0.4802454145065162,1771260171.7468576,1771260172.2702596,False,,,,,,,,,,
PPT,25,61,Beaver,SMALL_ANIMAL,Image,False,STIMULI\smallanimal\Beaver\Image_061.jpg,2026-02-16 08:42:52.291643,1771260172.300254,1771260172.6357095,0.3042415726817679,1771260172.7034643,1771260173.2406323,False,,,,,,,,,,
PPT,26,74,Camera,SMALL_OBJECT,Lure,True,STIMULI\smallobject\Camera\Lure_074.jpg,2026-02-16 08:42:53.261665,1771260173.266691,1771260173.8635194,0.56490653483659,1771260173.970314,1771260174.4991772,False,,,,,,,,,,
PPT,27,1,Alligator,BIG_ANIMAL,Lure,True,STIMULI\biganimal\Alligator\Lure_001.jpg,2026-02-16 08:42:54.521395,1771260174.5334249,1771260175.1349068,0.561028795145913,1771260175.2519217,1771260175.7887793,False,,,,,,,,,,
PPT,28,54,Bug,INSECT,Lure,True,STIMULI\INSECT\Bug\Lure_054.jpg,2026-02-16 08:42:55.802357,1771260175.8170176,1771260176.4216304,0.569978951790329,1771260176.5510647,1771260177.0842297,False,,,,,,,,,,
PPT,29,79,Key,SMALL_OBJECT,Lure,True,STIMULI\smallobject\Key\Lure_079.jpg,2026-02-16 08:42:57.106452,1771260177.118986,1771260177.8249483,0.6714948650322512,1771260177.93055,1771260178.453581,False,,,,,,,,,,
PPT,30,55,Butterfly,INSECT,Lure,True,STIMULI\INSECT\Butterfly\Lure_055.jpg,2026-02-16 08:42:58.468491,1771260178.4831505,1771260178.793338,0.27869800629947805,1771260178.9117374,1771260179.4326873,True,Cake,Was the last object a cake?,1771260179.5669382,,TIMEOUT,False,,True,10.0,
PPT,31,80,Lamp,SMALL_OBJECT,Lure,True,STIMULI\smallobject\Lamp\Lure_080.jpg,2026-02-16 08:43:11.735697,1771260191.7498198,1771260192.4809766,0.6926868996278112,1771260192.576447,1771260193.099295,False,,,,,,,,,,
PPT,32,19,Mailbox,BIG_OBJECT,Lure,True,STIMULI\bigobject\Mailbox\Lure_019.jpg,2026-02-16 08:43:13.118440,1771260193.1336665,1771260193.5907826,0.4246718488316227,1771260193.6976895,1771260194.2181985,False,,,,,,,,,,
PPT,33,2,Alpaca,BIG_ANIMAL,Lure,True,STIMULI\biganimal\Alpaca\Lure_002.jpg,2026-02-16 08:43:14.240556,1771260194.2503383,1771260195.0150075,0.7295444767009077,1771260195.121805,1771260195.649186,False,,,,,,,,,,
PPT,34,80,Lamp,SMALL_OBJECT,Image,False,STIMULI\smallobject\Lamp\Image_080.jpg,2026-02-16 08:43:15.669980,1771260195.6831505,1771260196.2045946,0.48765262739574816,1771260196.2576547,1771260196.7804453,False,,,,,,,,,,
PPT,35,21,Chicken,BIRD,Lure,True,STIMULI\BIRD\Chicken\Lure_021.jpg,2026-02-16 08:43:16.801537,1771260196.8164837,1771260197.1720402,0.32295442362018884,1771260197.2580514,1771260197.7850893,False,,,,,,,,,,
PPT,36,73,Blender,SMALL_OBJECT,Image,False,STIMULI\smallobject\Blender\Image_073.jpg,2026-02-16 08:43:17.805632,1771260197.815586,1771260198.60027,0.7438988102478257,1771260198.679413,1771260199.1990232,False,,,,,,,,,,
PPT,37,85,Bean,VEGETABLE,Lure,True,STIMULI\VEGETABLE\Bean\Lure_085.jpg,2026-02-16 08:43:19.219794,1771260199.2333732,1771260199.744944,0.4755424520198215,1771260199.8411644,1771260200.3751175,False,,,,,,,,,,
PPT,38,36,icecream,FOOD,Lure,True,STIMULI\FOOD\icecream\Lure_036.jpg,2026-02-16 08:43:20.397140,1771260200.402664,1771260200.8686643,0.43135874309385513,1771260201.0198176,1771260201.5488987,False,,,,,,,,,,
PPT,39,3,Camel,BIG_ANIMAL,Lure,True,STIMULI\biganimal\Camel\Lure_003.jpg,2026-02-16 08:43:21.569355,1771260201.5856788,1771260202.0867887,0.470745032650896,1771260202.2688007,1771260202.8054183,False,,,,,,,,,,
PPT,40,23,Flamingo,BIRD,Lure,True,STIMULI\BIRD\Flamingo\Lure_023.jpg,2026-02-16 08:43:22.826988,1771260202.833675,1771260203.2729716,0.4056430158934563,1771260203.3956716,1771260203.9216614,True,Camera,Was the last object a camera?,1771260204.0356417,1771260205.2502692,False,False,True,False,1.1864461000077426,1771260205.2366755
PPT,41,70,Otter,SMALL_ANIMAL,Image,False,STIMULI\smallanimal\Otter\Image_070.jpg,2026-02-16 08:43:25.588885,1771260205.5948796,1771260206.2149968,0.5901354592619272,1771260206.3592966,1771260206.8992765,False,,,,,,,,,,
PPT,42,31,Bagel,FOOD,Lure,True,STIMULI\FOOD\Bagel\Lure_031.jpg,2026-02-16 08:43:26.922091,1771260206.926088,1771260207.5262146,0.5664643365160592,1771260207.6634212,1771260208.1977997,False,,,,,,,,,,
PPT,43,66,Iguana,SMALL_ANIMAL,Lure,True,STIMULI\smallanimal\Iguana\Lure_066.jpg,2026-02-16 08:43:28.218451,1771260208.2247982,1771260208.8974915,0.6382608502127509,1771260209.0209117,1771260209.5435557,False,,,,,,,,,,
PPT,44,100,Van,VEHICLE,Lure,True,STIMULI\VEHICLE\Van\Lure_100.jpg,2026-02-16 08:43:29.566224,1771260209.5777671,1771260210.2453787,0.6361836564344161,1771260210.3619008,1771260210.8902414,False,,,,,,,,,,
PPT,45,93,Boat,VEHICLE,Lure,True,STIMULI\VEHICLE\Boat\Lure_093.jpg,2026-02-16 08:43:30.898388,1771260210.9080846,1771260211.1924417,0.25073075704832776,1771260211.3135583,1771260211.843054,False,,,,,,,,,,
PPT,46,25,Hawk,BIRD,Lure,True,STIMULI\BIRD\Hawk\Lure_025.jpg,2026-02-16 08:43:31.864953,1771260211.8753285,1771260212.655833,0.7434139101158738,1771260212.795221,1771260213.3274488,False,,,,,,,,,,
PPT,47,30,Penguin,BIRD,Image,False,STIMULI\BIRD\Penguin\Image_030.jpg,2026-02-16 08:43:33.350314,1771260213.3583155,1771260213.9896486,0.5961408781350428,1771260214.0389965,1771260214.561959,False,,,,,,,,,,
PPT,48,9,Walrus,BIG_ANIMAL,Image,False,STIMULI\biganimal\Walrus\Image_009.jpg,2026-02-16 08:43:34.584194,1771260214.5914142,1771260214.9052572,0.2869482140521341,1771260214.9846208,1771260215.5093713,False,,,,,,,,,,
PPT,49,51,Ant,INSECT,Image,False,STIMULI\INSECT\Ant\Image_051.jpg,2026-02-16 08:43:35.532211,1771260215.541389,1771260215.8616583,0.29049230106134455,1771260215.9170961,1771260216.439314,False,,,,,,,,,,
PPT,50,77,PairOfGlasses,SMALL_OBJECT,Image,False,STIMULI\smallobject\PairOfGlasses\Image_077.jpg,2026-02-16 08:43:36.461105,1771260216.4760182,1771260216.8492503,0.3455929354132066,1771260216.900712,1771260217.4225452,True,PairOfGlasses,Was the last object a pairofglasses?,1771260217.587196,1771260219.5955286,True,True,True,False,1.9783973000012338,1771260219.5820131
PPT,51,47,Peach,FRUIT,Lure,True,STIMULI\FRUIT\Peach\Lure_047.jpg,2026-02-16 08:43:39.930572,1771260219.9376743,1771260220.364869,0.4026027502437601,1771260220.4724586,1771260221.0028927,False,,,,,,,,,,
PPT,52,24,Goose,BIRD,Image,False,STIMULI\BIRD\Goose\Image_024.jpg,2026-02-16 08:43:41.024690,1771260221.033136,1771260221.6798213,0.6088544215752745,1771260221.750579,1771260222.2846391,False,,,,,,,,,,
PPT,53,56,Caterpillar,INSECT,Lure,True,STIMULI\INSECT\Caterpillar\Lure_056.jpg,2026-02-16 08:43:42.306385,1771260222.3169885,1771260222.8750095,0.5234203070066675,1771260223.0274765,1771260223.5538392,False,,,,,,,,,,
PPT,54,26,Hummingbird,BIRD,Image,False,STIMULI\BIRD\Hummingbird\Image_026.jpg,2026-02-16 08:43:43.574783,1771260223.582887,1771260224.3234198,0.6941717466391547,1771260224.3852172,1771260224.917669,False,,,,,,,,,,
PPT,55,33,Cake,FOOD,Lure,True,STIMULI\FOOD\Cake\Lure_033.jpg,2026-02-16 08:43:44.937866,1771260224.9498017,1771260225.7200947,0.7312285568010437,1771260225.818896,1771260226.3470104,False,,,,,,,,,,
PPT,56,96,cruiseship,VEHICLE,Lure,True,STIMULI\VEHICLE\cruiseship\Lure_096.jpg,2026-02-16 08:43:46.368422,1771260226.3831336,1771260226.7455816,0.33221762636217295,1771260226.837926,1771260227.3648584,False,,,,,,,,,,
PPT,57,68,Monkey,SMALL_ANIMAL,Lure,True,STIMULI\smallanimal\Monkey\Lure_068.jpg,2026-02-16 08:43:47.386986,1771260227.4006963,1771260227.7113867,0.28235577174342474,1771260227.8331158,1771260228.3683376,False,,,,,,,,,,
PPT,58,11,Barrel,BIG_OBJECT,Lure,True,STIMULI\bigobject\Barrel\Lure_011.jpg,2026-02-16 08:43:48.389659,1771260228.3997886,1771260228.792055,0.36008799118110263,1771260228.9203322,1771260229.4473872,False,,,,,,,,,,
PPT,59,12,Bench,BIG_OBJECT,Lure,True,STIMULI\bigobject\Bench\Lure_012.jpg,2026-02-16 08:43:49.469200,1771260229.4840722,1771260229.898374,0.3850251661205656,1771260229.9869237,1771260230.513607,False,,,,,,,,,,
PPT,60,60,Wasp,INSECT,Image,False,STIMULI\INSECT\Wasp\Image_060.jpg,2026-02-16 08:43:50.535215,1771260230.549788,1771260231.1128793,0.5248197278342187,1771260231.242362,1771260231.7675588,True,Hawk,Was the last object a hawk?,1771260231.9225805,1771260233.8996484,True,False,False,False,1.952344600111246,1771260233.8860414
PPT,61,4,Cheetah,BIG_ANIMAL,Image,False,STIMULI\biganimal\Cheetah\Image_004.jpg,2026-02-16 08:43:54.237351,1771260234.2453518,1771260234.5755286,0.30210297424616867,1771260234.6336343,1771260235.1673057,False,,,,,,,,,,
PPT,62,37,Pasta,FOOD,Image,False,STIMULI\FOOD\Pasta\Image_037.jpg,2026-02-16 08:43:55.187904,1771260235.192922,1771260235.7134507,0.49313281247356133,1771260235.7506778,1771260236.2777653,False,,,,,,,,,,
PPT,63,92,Bike,VEHICLE,Lure,True,STIMULI\VEHICLE\Bike\Lure_092.jpg,2026-02-16 08:43:56.297979,1771260236.3081129,1771260236.9992332,0.6445226057278572,1771260237.1087885,1771260237.6363335,False,,,,,,,,,,
PPT,64,44,Coconut,FRUIT,Image,False,STIMULI\FRUIT\Coconut\Image_044.jpg,2026-02-16 08:43:57.642504,1771260237.6580923,1771260238.2622101,0.5762437611664739,1771260238.3308754,1771260238.8526804,False,,,,,,,,,,
PPT,65,62,Cat,SMALL_ANIMAL,Lure,True,STIMULI\smallanimal\Cat\Lure_062.jpg,2026-02-16 08:43:58.869085,1771260238.875092,1771260239.3307066,0.4274352422332934,1771260239.3941338,1771260239.919252,False,,,,,,,,,,
PPT,66,87,Carrot,VEGETABLE,Lure,True,STIMULI\VEGETABLE\Carrot\Lure_087.jpg,2026-02-16 08:43:59.934698,1771260239.9416955,1771260240.259634,0.2950378788339458,1771260240.3237069,1771260240.8607275,False,,,,,,,,,,
PPT,67,38,Pie,FOOD,Lure,True,STIMULI\FOOD\Pie\Lure_038.jpg,2026-02-16 08:44:00.878193,1771260240.8919725,1771260241.6102662,0.6676957194191298,1771260241.7196727,1771260242.2430434,False,,,,,,,,,,
PPT,68,97,Helicopter,VEHICLE,Image,False,STIMULI\VEHICLE\Helicopter\Image_097.jpg,2026-02-16 08:44:02.264281,1771260242.2747931,1771260243.0211167,0.708155638030967,1771260243.1242476,1771260243.6559486,False,,,,,,,,,,
PPT,69,73,Blender,SMALL_OBJECT,Lure,True,STIMULI\smallobject\Blender\Lure_073.jpg,2026-02-16 08:44:03.679792,1771260243.6919744,1771260244.2137163,0.4868815164472376,1771260244.325227,1771260244.8592768,False,,,,,,,,,,
PPT,70,33,Cake,FOOD,Image,False,STIMULI\FOOD\Cake\Image_033.jpg,2026-02-16 08:44:04.878142,1771260244.8914566,1771260245.5565157,0.6298770883953269,1771260245.6135716,1771260246.14031,True,Cake,Was the last object a cake?,1771260246.2823396,1771260248.6252036,True,True,True,False,2.3174976999871433,1771260248.6155868
PPT,71,71,Balloon,SMALL_OBJECT,Lure,True,STIMULI\smallobject\Balloon\Lure_071.jpg,2026-02-16 08:44:08.956835,1771260248.9629436,1771260249.34014,0.3533468041780385,1771260249.456258,1771260249.9796782,False,,,,,,,,,,
PPT,72,91,Airplane,VEHICLE,Lure,True,STIMULI\VEHICLE\Airplane\Lure_091.jpg,2026-02-16 08:44:09.999006,1771260250.0050197,1771260250.4869535,0.4537868525086617,1771260250.598079,1771260251.11594,False,,,,,,,,,,
PPT,73,59,Moth,INSECT,Image,False,STIMULI\INSECT\Moth\Image_059.jpg,2026-02-16 08:44:11.140962,1771260251.1497371,1771260251.6882207,0.5043531370916466,1771260251.7303562,1771260252.25469,False,,,,,,,,,,
PPT,74,23,Flamingo,BIRD,Image,False,STIMULI\BIRD\Flamingo\Image_023.jpg,2026-02-16 08:44:12.276778,1771260252.2830644,1771260252.774258,0.46000792380948213,1771260252.8380554,1771260253.3627317,False,,,,,,,,,,
PPT,75,3,Camel,BIG_ANIMAL,Image,False,STIMULI\biganimal\Camel\Image_003.jpg,2026-02-16 08:44:13.381558,1771260253.3850846,1771260253.9741554,0.5490746579473278,1771260254.0854564,1771260254.617621,False,,,,,,,,,,
PPT,76,59,Moth,INSECT,Lure,True,STIMULI\INSECT\Moth\Lure_059.jpg,2026-02-16 08:44:14.642738,1771260254.6511216,1771260255.3459375,0.659078429621561,1771260255.460517,1771260255.9819076,False,,,,,,,,,,
PPT,77,49,Strawberry,FRUIT,Lure,True,STIMULI\FRUIT\Strawberry\Lure_049.jpg,2026-02-16 08:44:16.007799,1771260256.0164413,1771260256.7340598,0.6787666850599339,1771260256.8564374,1771260257.3844311,False,,,,,,,,,,
PPT,78,90,Squash,VEGETABLE,Lure,True,STIMULI\VEGETABLE\Squash\Lure_090.jpg,2026-02-16 08:44:17.405687,1771260257.4164498,1771260257.7236173,0.2774258273558089,1771260257.8403826,1771260258.3668828,False,,,,,,,,,,
PPT,79,100,Van,VEHICLE,Image,False,STIMULI\VEHICLE\Van\Image_100.jpg,2026-02-16 08:44:18.387718,1771260258.400067,1771260258.6948342,0.26835748476179755,1771260258.8025582,1771260259.3316696,False,,,,,,,,,,
PPT,80,28,Parrot,BIRD,Image,False,STIMULI\BIRD\Parrot\Image_028.jpg,2026-02-16 08:44:19.352134,1771260259.3669682,1771260260.1414323,0.7378284089084771,1771260260.1915555,1771260260.7157743,True,Parrot,Was the last object a parrot?,1771260260.8504677,1771260263.1335766,False,True,False,False,2.249351599952206,1771260263.1189
PPT,81,48,Pineapple,FRUIT,Image,False,STIMULI\FRUIT\Pineapple\Image_048.jpg,2026-02-16 08:44:23.473739,1771260263.4812615,1771260263.8808746,0.37516419376015003,1771260264.2303922,1771260264.7664874,False,,,,,,,,,,
PPT,82,9,Walrus,BIG_ANIMAL,Lure,True,STIMULI\biganimal\Walrus\Lure_009.jpg,2026-02-16 08:44:24.786852,1771260264.7945852,1771260265.2124448,0.3805426367827135,1771260265.3161507,1771260265.8368986,False,,,,,,,,,,
PPT,83,87,Carrot,VEGETABLE,Image,False,STIMULI\VEGETABLE\Carrot\Image_087.jpg,2026-02-16 08:44:25.857458,1771260265.8634572,1771260266.504149,0.6078993252436887,1771260266.5658197,1771260267.103645,False,,,,,,,,,,
PPT,84,42,Banana,FRUIT,Image,False,STIMULI\FRUIT\Banana\Image_042.jpg,2026-02-16 08:44:27.125392,1771260267.132826,1771260267.5218792,0.36613247138114513,1771260267.7889771,1771260268.322489,False,,,,,,,,,,
PPT,85,34,Donut,FOOD,Lure,True,STIMULI\FOOD\Donut\Lure_034.jpg,2026-02-16 08:44:28.341598,1771260268.3456395,1771260269.0704658,0.6922454431052658,1771260269.2285008,1771260269.7553978,False,,,,,,,,,,
PPT,86,17,filingcabinet,BIG_OBJECT,Lure,True,STIMULI\bigobject\filingcabinet\Lure_017.jpg,2026-02-16 08:44:29.775080,1771260269.7813845,1771260270.318214,0.5098983917184117,1771260270.4396408,1771260270.960054,False,,,,,,,,,,
PPT,87,16,Couch,BIG_OBJECT,Image,False,STIMULI\bigobject\Couch\Image_016.jpg,2026-02-16 08:44:30.980938,1771260270.9914317,1771260271.674576,0.6349265069586322,1771260271.838531,1771260272.3699954,False,,,,,,,,,,
PPT,88,94,Bus,VEHICLE,Image,False,STIMULI\VEHICLE\Bus\Image_094.jpg,2026-02-16 08:44:32.390367,1771260272.3964155,1771260273.1771834,0.7494046486220654,1771260273.4032104,1771260273.9351053,False,,,,,,,,,,
PPT,89,39,Pizza,FOOD,Lure,True,STIMULI\FOOD\Pizza\Lure_039.jpg,2026-02-16 08:44:33.955300,1771260273.9625363,1771260274.6157928,0.6194288560377608,1771260274.7520013,1771260275.2766197,False,,,,,,,,,,
PPT,90,71,Balloon,SMALL_OBJECT,Image,False,STIMULI\smallobject\Balloon\Image_071.jpg,2026-02-16 08:44:35.296273,1771260275.3081284,1771260275.6001277,0.2625993950901649,1771260275.6510396,1771260276.1694891,True,Strawberry,Was the last object a strawberry?,1771260276.3560987,1771260279.6747108,True,False,False,False,3.3031671000644565,1771260279.663736
PPT,91,95,Car,VEHICLE,Lure,True,STIMULI\VEHICLE\Car\Lure_095.jpg,2026-02-16 08:44:39.995773,1771260280.0009508,1771260280.624812,0.5940829029093712,1771260280.7425303,1771260281.2637882,False,,,,,,,,,,
PPT,92,48,Pineapple,FRUIT,Lure,True,STIMULI\FRUIT\Pineapple\Lure_048.jpg,2026-02-16 08:44:41.287753,1771260281.2999394,1771260281.901185,0.5683139985086838,1771260282.0158432,1771260282.5350962,False,,,,,,,,,,
PPT,93,43,Blueberry,FRUIT,Image,False,STIMULI\FRUIT\Blueberry\Image_043.jpg,2026-02-16 08:44:42.556410,1771260282.565865,1771260283.2552228,0.6533618752747672,1771260283.417275,1771260283.951199,False,,,,,,,,,,
PPT,94,98,Jeep,VEHICLE,Lure,True,STIMULI\VEHICLE\Jeep\Lure_098.jpg,2026-02-16 08:44:43.975882,1771260283.98324,1771260284.4596865,0.44243240391758304,1771260284.553783,1771260285.0820482,False,,,,,,,,,,
PPT,95,49,Strawberry,FRUIT,Image,False,STIMULI\FRUIT\Strawberry\Image_049.jpg,2026-02-16 08:44:45.107038,1771260285.1163054,1771260285.41417,0.2699378568598752,1771260285.4712524,1771260286.0035365,False,,,,,,,,,,
PPT,96,13,Chair,BIG_OBJECT,Image,False,STIMULI\bigobject\Chair\Image_013.jpg,2026-02-16 08:44:46.024764,1771260286.0335505,1771260286.3788176,0.3143629322046652,1771260286.4482915,1771260286.978682,False,,,,,,,,,,
PPT,97,36,icecream,FOOD,Image,False,STIMULI\FOOD\icecream\Image_036.jpg,2026-02-16 08:44:46.998355,1771260287.0024195,1771260287.3189647,0.28966159172254136,1771260287.3758698,1771260287.9050384,False,,,,,,,,,,
PPT,98,99,Jetski,VEHICLE,Image,False,STIMULI\VEHICLE\Jetski\Image_099.jpg,2026-02-16 08:44:47.925757,1771260287.9331007,1771260288.355956,0.3918139381459311,1771260288.4270089,1771260288.9533224,False,,,,,,,,,,
PPT,99,37,Pasta,FOOD,Lure,True,STIMULI\FOOD\Pasta\Lure_037.jpg,2026-02-16 08:44:48.975577,1771260288.9832501,1771260289.6557617,0.6421174893569677,1771260289.7694128,1771260290.2985444,False,,,,,,,,,,
PPT,100,22,Duck,BIRD,Image,False,STIMULI\BIRD\Duck\Image_022.jpg,2026-02-16 08:44:50.319329,1771260290.3330986,1771260291.0469286,0.6693559004072926,1771260291.1082945,1771260291.6403844,True,Duck,Was the last object a duck?,1771260291.752182,1771260293.1330361,True,True,True,False,1.3539386000484228,1771260293.119864
PPT,101,58,Mosquito,INSECT,Image,False,STIMULI\INSECT\Mosquito\Image_058.jpg,2026-02-16 08:44:53.471071,1771260293.4780955,1771260293.8631737,0.3569105093549053,1771260293.9824693,1771260294.5114508,False,,,,,,,,,,
PPT,102,20,Phonebooth,BIG_OBJECT,Image,False,STIMULI\bigobject\Phonebooth\Image_020.jpg,2026-02-16 08:44:54.535649,1771260294.5411732,1771260294.9155858,0.3446881251129259,1771260294.9679503,1771260295.489695,False,,,,,,,,,,
PPT,103,5,Elephant,BIG_ANIMAL,Lure,True,STIMULI\biganimal\Elephant\Lure_005.jpg,2026-02-16 08:44:55.511645,1771260295.5247617,1771260296.1175365,0.5610955868289108,1771260296.2071626,1771260296.7472603,False,,,,,,,,,,
PPT,104,51,Ant,INSECT,Lure,True,STIMULI\INSECT\Ant\Lure_051.jpg,2026-02-16 08:44:56.769121,1771260296.775236,1771260297.3564868,0.547381479105441,1771260297.4908943,1771260298.007626,False,,,,,,,,,,
PPT,105,90,Squash,VEGETABLE,Image,False,STIMULI\VEGETABLE\Squash\Image_090.jpg,2026-02-16 08:44:58.031623,1771260298.0414288,1771260298.5479918,0.47611608275083983,1771260298.6166174,1771260299.1402044,False,,,,,,,,,,
PPT,106,50,Watermelon,FRUIT,Image,False,STIMULI\FRUIT\Watermelon\Image_050.jpg,2026-02-16 08:44:59.161953,1771260299.1752772,1771260299.4790463,0.2748345149854111,1771260299.5370452,1771260300.0581787,False,,,,,,,,,,
PPT,107,76,Football,SMALL_OBJECT,Image,False,STIMULI\smallobject\Football\Image_076.jpg,2026-02-16 08:45:00.075229,1771260300.0918794,1771260300.5527797,0.43646332189355,1771260300.5842633,1771260301.109676,False,,,,,,,,,,
PPT,108,25,Hawk,BIRD,Image,False,STIMULI\BIRD\Hawk\Image_025.jpg,2026-02-16 08:45:01.129530,1771260301.141425,1771260301.7968464,0.6220886901966256,1771260301.843051,1771260302.378208,False,,,,,,,,,,
PPT,109,79,Key,SMALL_OBJECT,Image,False,STIMULI\smallobject\Key\Image_079.jpg,2026-02-16 08:45:02.399789,1771260302.40804,1771260302.9616594,0.5141767496253373,1771260303.1094735,1771260303.6409047,False,,,,,,,,,,
PPT,110,1,Alligator,BIG_ANIMAL,Image,False,STIMULI\biganimal\Alligator\Image_001.jpg,2026-02-16 08:45:03.663854,1771260303.6757908,1771260304.389016,0.676987269004012,1771260304.4426813,1771260304.976105,True,Alligator,Was the last object an alligator?,1771260305.169995,1771260306.5787725,True,True,True,False,1.3728547999635339,1771260306.5610383
PPT,111,94,Bus,VEHICLE,Lure,True,STIMULI\VEHICLE\Bus\Lure_094.jpg,2026-02-16 08:45:06.915183,1771260306.9217076,1771260307.2557864,0.3171249753322131,1771260307.4080935,1771260307.954868,False,,,,,,,,,,
PPT,112,29,Peacock,BIRD,Image,False,STIMULI\BIRD\Peacock\Image_029.jpg,2026-02-16 08:45:07.975592,1771260307.981587,1771260308.2892246,0.28318305587675546,1771260308.350129,1771260308.8740876,False,,,,,,,,,,
PPT,113,83,Avocado,VEGETABLE,Image,False,STIMULI\VEGETABLE\Avocado\Image_083.jpg,2026-02-16 08:45:08.900601,1771260308.9084954,1771260309.652537,0.7034646966922301,1771260309.729336,1771260310.255886,False,,,,,,,,,,
PPT,114,44,Coconut,FRUIT,Lure,True,STIMULI\FRUIT\Coconut\Lure_044.jpg,2026-02-16 08:45:10.277707,1771260310.2806733,1771260310.9807808,0.6699742778244547,1771260311.1572711,1771260311.6748078,False,,,,,,,,,,
PPT,115,84,Basil,VEGETABLE,Image,False,STIMULI\VEGETABLE\Basil\Image_084.jpg,2026-02-16 08:45:11.693353,1771260311.7080305,1771260312.211829,0.4730237796686493,1771260312.2807064,1771260312.809759,False,,,,,,,,,,
PPT,116,64,Frog,SMALL_ANIMAL,Image,False,STIMULI\smallanimal\Frog\Image_064.jpg,2026-02-16 08:45:12.831035,1771260312.8441591,1771260313.3801382,0.5082500617723387,1771260313.4326098,1771260313.9553835,False,,,,,,,,,,
PPT,117,11,Barrel,BIG_OBJECT,Image,False,STIMULI\bigobject\Barrel\Image_011.jpg,2026-02-16 08:45:13.973594,1771260313.9780884,1771260314.2561998,0.2522606374934387,1771260314.3534853,1771260314.8785083,False,,,,,,,,,,
PPT,118,75,Envelope,SMALL_OBJECT,Lure,True,STIMULI\smallobject\Envelope\Lure_075.jpg,2026-02-16 08:45:14.901921,1771260314.9079273,1771260315.4267838,0.4870345495427131,1771260315.5413287,1771260316.0727575,False,,,,,,,,,,
PPT,119,31,Bagel,FOOD,Image,False,STIMULI\FOOD\Bagel\Image_031.jpg,2026-02-16 08:45:16.093255,1771260316.108593,1771260316.7654061,0.6219012732426477,1771260316.9748044,1771260317.5107734,False,,,,,,,,,,
PPT,120,58,Mosquito,INSECT,Lure,True,STIMULI\INSECT\Mosquito\Lure_058.jpg,2026-02-16 08:45:17.526615,1771260317.5417976,1771260317.9437957,0.3692815007262655,1771260318.0550745,1771260318.5780425,True,Chandelier,Was the last object a chandelier?,1771260318.7037327,1771260320.8496883,True,False,False,False,2.119493499863893,1771260320.8385527
PPT,121,69,Mouse,SMALL_ANIMAL,Lure,True,STIMULI\smallanimal\Mouse\Lure_069.jpg,2026-02-16 08:45:21.185792,1771260321.1927905,1771260321.5316012,0.31040380663383926,1771260321.645715,1771260322.1733885,False,,,,,,,,,,
PPT,122,18,hottub,BIG_OBJECT,Lure,True,STIMULI\bigobject\hottub\Lure_018.jpg,2026-02-16 08:45:22.194004,1771260322.208598,1771260322.8482103,0.6050024852173999,1771260322.9669325,1771260323.4874358,False,,,,,,,,,,
PPT,123,50,Watermelon,FRUIT,Lure,True,STIMULI\FRUIT\Watermelon\Lure_050.jpg,2026-02-16 08:45:23.505519,1771260323.5098948,1771260323.9469633,0.40546794878457243,1771260324.0572464,1771260324.5770848,False,,,,,,,,,,
PPT,124,91,Airplane,VEHICLE,Image,False,STIMULI\VEHICLE\Airplane\Image_091.jpg,2026-02-16 08:45:24.598566,1771260324.608068,1771260325.2786298,0.6345785401582371,1771260325.3346338,1771260325.8567636,False,,,,,,,,,,
PPT,125,41,Apple,FRUIT,Lure,True,STIMULI\FRUIT\Apple\Lure_041.jpg,2026-02-16 08:45:25.877182,1771260325.8919275,1771260326.2125096,0.29109879186049975,1771260326.3919733,1771260326.926333,False,,,,,,,,,,
PPT,126,75,Envelope,SMALL_OBJECT,Image,False,STIMULI\smallobject\Envelope\Image_075.jpg,2026-02-16 08:45:26.951102,1771260326.9582748,1771260327.6513028,0.6556863705328035,1771260328.036019,1771260328.5725074,False,,,,,,,,,,
PPT,127,28,Parrot,BIRD,Lure,True,STIMULI\BIRD\Parrot\Lure_028.jpg,2026-02-16 08:45:28.593774,1771260328.608591,1771260329.0261805,0.38696630137720717,1771260329.1453335,1771260329.6766915,False,,,,,,,,,,
PPT,128,85,Bean,VEGETABLE,Image,False,STIMULI\VEGETABLE\Bean\Image_085.jpg,2026-02-16 08:45:29.698893,1771260329.7085793,1771260330.0975106,0.35477368506166723,1771260330.162973,1771260330.6949835,False,,,,,,,,,,
PPT,129,52,Bee,INSECT,Lure,True,STIMULI\INSECT\Bee\Lure_052.jpg,2026-02-16 08:45:30.714044,1771260330.7247314,1771260331.305661,0.5460509834505447,1771260331.4090621,1771260331.9429436,False,,,,,,,,,,
PPT,130,63,Dog,SMALL_ANIMAL,Lure,True,STIMULI\smallanimal\Dog\Lure_063.jpg,2026-02-16 08:45:31.960086,1771260331.9747415,1771260332.705426,0.6936202132463407,1771260332.8581562,1771260333.392215,True,Dog,Was the last object a dog?,1771260333.5526423,1771260334.6580338,True,True,True,False,1.0800258999224752,1771260334.6510272
PPT,131,88,Kale,VEGETABLE,Image,False,STIMULI\VEGETABLE\Kale\Image_088.jpg,2026-02-16 08:45:34.994930,1771260335.0023258,1771260335.6366851,0.5793185760076582,1771260335.6761143,1771260336.2051742,False,,,,,,,,,,
PPT,132,53,Beetle,INSECT,Lure,True,STIMULI\INSECT\Beetle\Lure_053.jpg,2026-02-16 08:45:36.225841,1771260336.2330723,1771260336.9470263,0.6802738435105165,1771260337.0576272,1771260337.5861702,False,,,,,,,,,,
PPT,133,81,Arugula,VEGETABLE,Image,False,STIMULI\VEGETABLE\Arugula\Image_081.jpg,2026-02-16 08:45:37.606469,1771260337.616347,1771260337.9676943,0.321178762646329,1771260338.0324316,1771260338.548394,False,,,,,,,,,,
PPT,134,81,Arugula,VEGETABLE,Lure,True,STIMULI\VEGETABLE\Arugula\Lure_081.jpg,2026-02-16 08:45:38.572554,1771260338.5840843,1771260339.2518263,0.6334926633759488,1771260339.3706698,1771260339.8983629,False,,,,,,,,,,
PPT,135,19,Mailbox,BIG_OBJECT,Image,False,STIMULI\bigobject\Mailbox\Image_019.jpg,2026-02-16 08:45:39.918400,1771260339.9330697,1771260340.485267,0.5190243038284332,1771260340.6537144,1771260341.1814418,False,,,,,,,,,,
PPT,136,39,Pizza,FOOD,Image,False,STIMULI\FOOD\Pizza\Image_039.jpg,2026-02-16 08:45:41.207047,1771260341.2163923,1771260341.7612543,0.5120287584710976,1771260341.8095667,1771260342.3300862,False,,,,,,,,,,
PPT,137,43,Blueberry,FRUIT,Lure,True,STIMULI\FRUIT\Blueberry\Lure_043.jpg,2026-02-16 08:45:42.348436,1771260342.3548155,1771260343.0374105,0.654920950962825,1771260343.1040914,1771260343.6305573,False,,,,,,,,,,
PPT,138,60,Wasp,INSECT,Lure,True,STIMULI\INSECT\Wasp\Lure_060.jpg,2026-02-16 08:45:43.653472,1771260343.666401,1771260344.3338404,0.6335478721341783,1771260344.4547956,1771260344.9852183,False,,,,,,,,,,
PPT,139,46,Orange,FRUIT,Image,False,STIMULI\FRUIT\Orange\Image_046.jpg,2026-02-16 08:45:45.005290,1771260345.0163584,1771260345.5979059,0.5510258159322887,1771260345.661845,1771260346.1797247,False,,,,,,,,,,
PPT,140,2,Alpaca,BIG_ANIMAL,Image,False,STIMULI\biganimal\Alpaca\Image_002.jpg,2026-02-16 08:45:46.199184,1771260346.2047074,1771260346.514635,0.28589335385532894,1771260346.5795987,1771260347.1019976,True,Asparagus,Was the last object an asparagus?,1771260347.2122812,1771260348.3496728,True,False,False,False,1.1198531999252737,1771260348.3360124
PPT,141,26,Hummingbird,BIRD,Lure,True,STIMULI\BIRD\Hummingbird\Lure_026.jpg,2026-02-16 08:45:48.687707,1771260348.6952288,1771260349.2579274,0.5326272389537849,1771260349.3481956,1771260349.8759198,False,,,,,,,,,,
PPT,142,22,Duck,BIRD,Lure,True,STIMULI\BIRD\Duck\Lure_022.jpg,2026-02-16 08:45:49.897296,1771260349.9079003,1771260350.531328,0.5915692455790033,1771260350.633885,1771260351.1555932,False,,,,,,,,,,
PPT,143,27,Owl,BIRD,Lure,True,STIMULI\BIRD\Owl\Lure_027.jpg,2026-02-16 08:45:51.176453,1771260351.1814613,1771260351.7991793,0.5880802017747028,1771260351.956789,1771260352.4803677,False,,,,,,,,,,
PPT,144,17,filingcabinet,BIG_OBJECT,Image,False,STIMULI\bigobject\filingcabinet\Image_017.jpg,2026-02-16 08:45:52.500990,1771260352.50853,1771260352.9476216,0.4063715283768376,1771260352.9868462,1771260353.5099945,False,,,,,,,,,,
PPT,145,68,Monkey,SMALL_ANIMAL,Image,False,STIMULI\smallanimal\Monkey\Image_068.jpg,2026-02-16 08:45:53.530558,1771260353.5413964,1771260353.8280344,0.25742121679492075,1771260353.9034038,1771260354.4241521,False,,,,,,,,,,
PPT,146,93,Boat,VEHICLE,Image,False,STIMULI\VEHICLE\Boat\Image_093.jpg,2026-02-16 08:45:54.447542,1771260354.4580615,1771260354.7667143,0.2730608161659206,1771260354.8278775,1771260355.3575397,False,,,,,,,,,,
PPT,147,98,Jeep,VEHICLE,Image,False,STIMULI\VEHICLE\Jeep\Image_098.jpg,2026-02-16 08:45:55.378320,1771260355.3919134,1771260356.147118,0.7185524210897672,1771260356.3756182,1771260356.9090025,False,,,,,,,,,,
PPT,148,12,Bench,BIG_OBJECT,Image,False,STIMULI\bigobject\Bench\Image_012.jpg,2026-02-16 08:45:56.931119,1771260356.9419105,1771260357.4090147,0.4366422435508746,1771260357.5447288,1771260358.0767496,False,,,,,,,,,,
PPT,149,21,Chicken,BIRD,Image,False,STIMULI\BIRD\Chicken\Image_021.jpg,2026-02-16 08:45:58.103372,1771260358.1073725,1771260358.846119,0.6907623315142726,1771260358.9097967,1771260359.4449468,False,,,,,,,,,,
PPT,150,8,Horse,BIG_ANIMAL,Image,False,STIMULI\biganimal\Horse\Image_008.jpg,2026-02-16 08:45:59.460066,1771260359.4752414,1771260359.8490825,0.34689003978782434,1771260359.9063108,1771260360.4203317,True,Horse,Was the last object a horse?,1771260360.4962714,1771260362.1572971,True,True,True,False,1.635959300212562,1771260362.144021
PPT,151,24,Goose,BIRD,Lure,True,STIMULI\BIRD\Goose\Lure_024.jpg,2026-02-16 08:46:02.476684,1771260362.4811866,1771260363.2292514,0.7327424061981813,1771260363.2843628,1771260363.810858,False,,,,,,,,,,
PPT,152,30,Penguin,BIRD,Lure,True,STIMULI\BIRD\Penguin\Lure_030.jpg,2026-02-16 08:46:03.826057,1771260363.833068,1771260364.1401458,0.27862898373095707,1771260364.25279,1771260364.7819319,False,,,,,,,,,,
PPT,153,89,Pepper,VEGETABLE,Lure,True,STIMULI\VEGETABLE\Pepper\Lure_089.jpg,2026-02-16 08:46:04.802031,1771260364.8163888,1771260365.511002,0.6533120841411524,1771260365.6194556,1771260366.1469147,False,,,,,,,,,,
PPT,154,67,Koala,SMALL_ANIMAL,Lure,True,STIMULI\smallanimal\Koala\Lure_067.jpg,2026-02-16 08:46:06.166378,1771260366.170394,1771260366.5738153,0.3776049140285194,1771260366.6446218,1771260367.163357,False,,,,,,,,,,
PPT,155,86,bokchoy,VEGETABLE,Lure,True,STIMULI\VEGETABLE\bokchoy\Lure_086.jpg,2026-02-16 08:46:07.184218,1771260367.1997206,1771260367.6444361,0.41396525672678963,1771260367.766262,1771260368.2971313,False,,,,,,,,,,
PPT,156,88,Kale,VEGETABLE,Lure,True,STIMULI\VEGETABLE\Kale\Lure_088.jpg,2026-02-16 08:46:08.319646,1771260368.3330536,1771260368.8397815,0.475381734074134,1771260368.9633741,1771260369.4867306,False,,,,,,,,,,
PPT,157,54,Bug,INSECT,Image,False,STIMULI\INSECT\Bug\Image_054.jpg,2026-02-16 08:46:09.503116,1771260369.5163882,1771260370.272222,0.7186485228833253,1771260370.322629,1771260370.8515265,False,,,,,,,,,,
PPT,158,56,Caterpillar,INSECT,Image,False,STIMULI\INSECT\Caterpillar\Image_056.jpg,2026-02-16 08:46:10.875245,1771260370.8835711,1771260371.3341956,0.4174625957425079,1771260371.4788318,1771260372.0015123,False,,,,,,,,,,
PPT,159,57,Fly,INSECT,Image,False,STIMULI\INSECT\Fly\Image_057.jpg,2026-02-16 08:46:12.023970,1771260372.033052,1771260372.5242865,0.45907525291557844,1771260372.5878923,1771260373.1157136,False,,,,,,,,,,
PPT,160,46,Orange,FRUIT,Lure,True,STIMULI\FRUIT\Orange\Lure_046.jpg,2026-02-16 08:46:13.136691,1771260373.1497035,1771260373.836774,0.6454319018953334,1771260373.941403,1771260374.4673815,True,Orange,Was the last object an orange?,1771260374.6255555,1771260376.516708,True,True,True,False,1.8627541998866946,1771260376.502685
PPT,161,72,Basket,SMALL_OBJECT,Image,False,STIMULI\smallobject\Basket\Image_072.jpg,2026-02-16 08:46:16.854347,1771260376.8598757,1771260377.5910244,0.7001043366635461,1771260377.6847687,1771260378.218304,False,,,,,,,,,,
PPT,162,14,Chandelier,BIG_OBJECT,Lure,True,STIMULI\bigobject\Chandelier\Lure_014.jpg,2026-02-16 08:46:18.239081,1771260378.2501993,1771260378.912541,0.6270021453467816,1771260379.0219424,1771260379.5484881,False,,,,,,,,,,
PPT,163,62,Cat,SMALL_ANIMAL,Image,False,STIMULI\smallanimal\Cat\Image_062.jpg,2026-02-16 08:46:19.568377,1771260379.5849564,1771260380.1807773,0.5606825602957384,1771260380.234921,1771260380.7700005,False,,,,,,,,,,
PPT,164,83,Avocado,VEGETABLE,Lure,True,STIMULI\VEGETABLE\Avocado\Lure_083.jpg,2026-02-16 08:46:20.792756,1771260380.8001764,1771260381.4236746,0.590559202261006,1771260381.5442166,1771260382.0676107,False,,,,,,,,,,
PPT,165,35,Hotdog,FOOD,Image,False,STIMULI\FOOD\Hotdog\Image_035.jpg,2026-02-16 08:46:22.088534,1771260382.1002245,1771260382.6551988,0.5234576774072939,1771260382.854726,1771260383.394101,False,,,,,,,,,,
PPT,166,99,Jetski,VEHICLE,Lure,True,STIMULI\VEHICLE\Jetski\Lure_099.jpg,2026-02-16 08:46:23.414659,1771260383.4219773,1771260383.745552,0.2999496112866069,1771260383.860441,1771260384.3843474,False,,,,,,,,,,
PPT,167,40,Soup,FOOD,Lure,True,STIMULI\FOOD\Soup\Lure_040.jpg,2026-02-16 08:46:24.404915,1771260384.4163728,1771260385.1790874,0.7286473576397416,1771260385.3007004,1771260385.83433,False,,,,,,,,,,
PPT,168,13,Chair,BIG_OBJECT,Lure,True,STIMULI\bigobject\Chair\Lure_013.jpg,2026-02-16 08:46:25.855689,1771260385.866847,1771260386.301987,0.40512204441937455,1771260386.4168823,1771260386.9483402,False,,,,,,,,,,
PPT,169,10,Zebra,BIG_ANIMAL,Image,False,STIMULI\biganimal\Zebra\Image_010.jpg,2026-02-16 08:46:26.968947,1771260386.9830437,1771260387.4728994,0.4562653014179595,1771260387.5323708,1771260388.066922,False,,,,,,,,,,
PPT,170,97,Helicopter,VEHICLE,Lure,True,STIMULI\VEHICLE\Helicopter\Lure_097.jpg,2026-02-16 08:46:28.085153,1771260388.100209,1771260388.400494,0.27346096487062993,1771260388.499534,1771260389.0318677,True,Alpaca,Was the last object an alpaca?,1771260389.1617846,1771260393.8691075,True,False,False,False,4.678111399989575,1771260393.8565536
PPT,171,78,Globe,SMALL_OBJECT,Image,False,STIMULI\smallobject\Globe\Image_078.jpg,2026-02-16 08:46:34.207492,1771260394.2140777,1771260394.6452038,0.4033439420031834,1771260394.7008886,1771260395.2240086,False,,,,,,,,,,
PPT,172,14,Chandelier,BIG_OBJECT,Image,False,STIMULI\bigobject\Chandelier\Image_014.jpg,2026-02-16 08:46:35.248539,1771260395.2584064,1771260395.7613254,0.46059199161766473,1771260395.828144,1771260396.3569653,False,,,,,,,,,,
PPT,173,89,Pepper,VEGETABLE,Image,False,STIMULI\VEGETABLE\Pepper\Image_089.jpg,2026-02-16 08:46:36.377901,1771260396.3933837,1771260396.676339,0.25374269576037906,1771260396.8820026,1771260397.4160614,False,,,,,,,,,,
PPT,174,18,hottub,BIG_OBJECT,Image,False,STIMULI\bigobject\hottub\Image_018.jpg,2026-02-16 08:46:37.436883,1771260397.4414043,1771260398.150991,0.6732082694798329,1771260398.2093158,1771260398.7463746,False,,,,,,,,,,
PPT,175,29,Peacock,BIRD,Lure,True,STIMULI\BIRD\Peacock\Lure_029.jpg,2026-02-16 08:46:38.768855,1771260398.7752216,1771260399.2844143,0.47845084658924925,1771260399.3674436,1771260399.9001956,False,,,,,,,,,,
PPT,176,8,Horse,BIG_ANIMAL,Lure,True,STIMULI\biganimal\Horse\Lure_008.jpg,2026-02-16 08:46:39.921235,1771260399.9267576,1771260400.2152758,0.25320706636826185,1771260400.3143651,1771260400.8468275,False,,,,,,,,,,
PPT,177,65,Groundhog,SMALL_ANIMAL,Lure,True,STIMULI\smallanimal\Groundhog\Lure_065.jpg,2026-02-16 08:46:40.868529,1771260400.8748443,1771260401.652415,0.7445527610145909,1771260401.7460213,1771260402.272607,False,,,,,,,,,,
PPT,178,61,Beaver,SMALL_ANIMAL,Lure,True,STIMULI\smallanimal\Beaver\Lure_061.jpg,2026-02-16 08:46:42.292006,1771260402.2961717,1771260402.6317244,0.31208206093193486,1771260402.7589033,1771260403.2957814,False,,,,,,,,,,
PPT,179,41,Apple,FRUIT,Image,False,STIMULI\FRUIT\Apple\Image_041.jpg,2026-02-16 08:46:43.316588,1771260403.3244736,1771260404.0355222,0.6749215794468431,1771260404.1174421,1771260404.6453407,False,,,,,,,,,,
PPT,180,6,Giraffe,BIG_ANIMAL,Image,False,STIMULI\biganimal\Giraffe\Image_006.jpg,2026-02-16 08:46:44.665712,1771260404.6747,1771260405.3614068,0.6531225209794373,1771260405.4680152,1771260406.0083332,True,Alligator,Was the last object an alligator?,1771260406.136836,1771260408.174955,True,False,False,False,2.009524199878797,1771260408.1617293
PPT,181,77,PairOfGlasses,SMALL_OBJECT,Lure,True,STIMULI\smallobject\PairOfGlasses\Lure_077.jpg,2026-02-16 08:46:48.509712,1771260408.5168152,1771260409.079523,0.5262703246856648,1771260409.206926,1771260409.7465014,False,,,,,,,,,,
PPT,182,35,Hotdog,FOOD,Lure,True,STIMULI\FOOD\Hotdog\Lure_035.jpg,2026-02-16 08:46:49.766611,1771260409.7752166,1771260410.0828426,0.280098045879949,1771260410.2090242,1771260410.7382948,False,,,,,,,,,,
PPT,183,7,Hippopotamus,BIG_ANIMAL,Lure,True,STIMULI\biganimal\Hippopotamus\Lure_007.jpg,2026-02-16 08:46:50.756666,1771260410.7601826,1771260411.3935418,0.5997895017547727,1771260411.4802992,1771260412.0094187,False,,,,,,,,,,
PPT,184,82,Asparagus,VEGETABLE,Lure,True,STIMULI\VEGETABLE\Asparagus\Lure_082.jpg,2026-02-16 08:46:52.030031,1771260412.0418735,1771260412.4983537,0.4291903549707272,1771260412.6402295,1771260413.1655097,False,,,,,,,,,,
PPT,185,69,Mouse,SMALL_ANIMAL,Image,False,STIMULI\smallanimal\Mouse\Image_069.jpg,2026-02-16 08:46:53.186252,1771260413.1913621,1771260413.606231,0.38580516489881345,1771260413.7445118,1771260414.2756402,False,,,,,,,,,,
PPT,186,76,Football,SMALL_OBJECT,Lure,True,STIMULI\smallobject\Football\Lure_076.jpg,2026-02-16 08:46:54.295971,1771260414.3080287,1771260414.6158493,0.2713828492929797,1771260414.7344584,1771260415.262888,False,,,,,,,,,,
PPT,187,34,Donut,FOOD,Image,False,STIMULI\FOOD\Donut\Image_034.jpg,2026-02-16 08:46:55.284425,1771260415.2913597,1771260415.6448529,0.3245786863908604,1771260415.696969,1771260416.2257297,False,,,,,,,,,,
PPT,188,5,Elephant,BIG_ANIMAL,Image,False,STIMULI\biganimal\Elephant\Image_005.jpg,2026-02-16 08:46:56.245485,1771260416.2585013,1771260417.0434563,0.7281369186311633,1771260417.1056483,1771260417.6271625,False,,,,,,,,,,
PPT,189,53,Beetle,INSECT,Image,False,STIMULI\INSECT\Beetle\Image_053.jpg,2026-02-16 08:46:57.651030,1771260417.6595473,1771260418.0223784,0.3351475410217196,1771260418.2086635,1771260418.7430825,False,,,,,,,,,,
PPT,190,15,coatrack,BIG_OBJECT,Image,False,STIMULI\bigobject\coatrack\Image_015.jpg,2026-02-16 08:46:58.763782,1771260418.7746918,1771260419.3005955,0.4952191573918876,1771260419.3768709,1771260419.9086707,True,coatrack,Was the last object a coatrack?,1771260420.081815,1771260422.1912982,False,True,False,False,2.0808434998616576,1771260422.1776373
PPT,191,63,Dog,SMALL_ANIMAL,Image,False,STIMULI\smallanimal\Dog\Image_063.jpg,2026-02-16 08:47:02.531345,1771260422.536867,1771260423.0781212,0.5243756033266745,1771260423.1099706,1771260423.6380358,False,,,,,,,,,,
PPT,192,84,Basil,VEGETABLE,Lure,True,STIMULI\VEGETABLE\Basil\Lure_084.jpg,2026-02-16 08:47:03.661584,1771260423.6746895,1771260424.2808018,0.5708971211830056,1771260424.389765,1771260424.905375,False,,,,,,,,,,
PPT,193,16,Couch,BIG_OBJECT,Lure,True,STIMULI\bigobject\Couch\Lure_016.jpg,2026-02-16 08:47:04.911957,1771260424.925153,1771260425.542535,0.583575205724876,1771260425.6418898,1771260426.1765773,False,,,,,,,,,,
PPT,194,32,Burrito,FOOD,Lure,True,STIMULI\FOOD\Burrito\Lure_032.jpg,2026-02-16 08:47:06.196945,1771260426.207962,1771260426.7465901,0.5063992511666251,1771260426.8751435,1771260427.4122596,False,,,,,,,,,,
PPT,195,4,Cheetah,BIG_ANIMAL,Lure,True,STIMULI\biganimal\Cheetah\Lure_004.jpg,2026-02-16 08:47:07.433285,1771260427.4415772,1771260427.8457932,0.37474655109059857,1771260427.9928222,1771260428.5205786,False,,,,,,,,,,
PPT,196,40,Soup,FOOD,Image,False,STIMULI\FOOD\Soup\Image_040.jpg,2026-02-16 08:47:08.539043,1771260428.5436344,1771260429.188478,0.6109636082804907,1771260429.2505364,1771260429.7738893,False,,,,,,,,,,
PPT,197,52,Bee,INSECT,Image,False,STIMULI\INSECT\Bee\Image_052.jpg,2026-02-16 08:47:09.793361,1771260429.808022,1771260430.4640896,0.6175328012888746,1771260430.5323148,1771260431.0606496,False,,,,,,,,,,
PPT,198,27,Owl,BIRD,Image,False,STIMULI\BIRD\Owl\Image_027.jpg,2026-02-16 08:47:11.080977,1771260431.091602,1771260431.3837452,0.261736646917873,1771260431.4384117,1771260431.9679644,False,,,,,,,,,,
PPT,199,20,Phonebooth,BIG_OBJECT,Lure,True,STIMULI\bigobject\Phonebooth\Lure_020.jpg,2026-02-16 08:47:11.978347,1771260431.9913528,1771260432.4789944,0.4549912163622421,1771260432.6037428,1771260433.126152,False,,,,,,,,,,
PPT,200,64,Frog,SMALL_ANIMAL,Lure,True,STIMULI\smallanimal\Frog\Lure_064.jpg,2026-02-16 08:47:13.144881,1771260433.160384,1771260433.8036568,0.6007174999946484,1771260433.8880389,1771260434.4066386,True,Helicopter,Was the last object a helicopter?,1771260434.5708277,1771260437.8163445,True,False,False,False,3.2143830000422895,1771260437.8021502
