ai_correct,ai_decision_time,ai_final_slider_display_time,ai_reliability,ai_rt,ai_slider_display_time,ai_slider_value,block,block_duration_minutes,block_duration_seconds,block_end_time,block_start_time,decision_onset_time,euclidean_ai_to_truth,euclidean_participant_to_ai,euclidean_participant_to_truth,final_answer,ground_truth,image_onset,image_path,is_studied,outcome_time,participant_accuracy,participant_commit_time,participant_first,participant_rt,participant_slider_click_times,participant_slider_decision_onset_time,participant_slider_stop_time,participant_slider_timeout,participant_slider_value,phase,points_earned,switch_commit_time,switch_rt,switch_stay_decision,switch_timeout,trial,trial_type,used_ai_answer
,,,0.5,,,,0,,,,,,,,0.027777777777777783,0.027777777777777783,0.0,1770761579.963535,C:\Users\qasim\Desktop\SocialRecognitionTask\PLACEHOLDERS\IMAGE_1.png,True,,True,1770761578.44184,True,2.235564708709717,1770761577.8515596,1770761577.8515596,1770761577.8515596,False,0.027777777777777783,recognition,0.9722222222222222,,,,,1,studied,False
True,1770761590.421466,1770761585.198717,0.5,2.0,1770761584.9002826,0.0,0,,,,,,0.0,0.009259259259259262,0.009259259259259262,0.009259259259259262,0.0,1770761590.421466,C:\Users\qasim\Desktop\SocialRecognitionTask\PLACEHOLDERS\IMAGE_2.png,True,,True,1770761588.902494,True,2.335916757583618,1770761588.2606592,1770761588.2606592,1770761588.2606592,False,0.009259259259259262,recognition,0.9907407407407407,,,,,2,studied,False
False,1770761602.7980754,1770761598.177491,0.5,2.0,1770761597.8751533,0.4,0,,,,,1770761599.573929,0.6,0.5837962962962963,0.01620370370370372,0.9837962962962963,1.0,1770761602.7980754,C:\Users\qasim\Desktop\SocialRecognitionTask\PLACEHOLDERS\IMAGE_3.png,False,1770761602.7980754,True,1770761596.0837393,True,1.968205213546753,1770761595.485328,1770761595.485328,1770761595.485328,False,0.9837962962962963,recognition,0.9837962962962963,1770761600.737481,1.1635520458221436,stay,False,3,studied,False
False,1770761644.9652476,1770761646.3614597,0.75,0.9052785862188705,1770761646.058691,0.6038508316886948,1,2.136907637119293,128.2144582271576,1770761749.4832785,1770761621.2688203,1770761647.757382,0.6038508316886948,0.5945915724294355,0.009259259259259262,0.6038508316886948,0.0,1770761641.174585,C:\Users\qasim\Desktop\SocialRecognitionTask\STIMULI\smallanimal\Iguana\Image_066.jpg,True,1770761648.9714103,False,1770761644.961229,True,2.6797268390655518,1770761643.716944,1770761643.716944,1770761643.716944,False,0.009259259259259262,recognition,0.3961491683113052,1770761648.9704096,1.2130277156829834,switch,False,1,studied,True
True,1770761652.9214432,1770761655.1185675,0.75,2.08948329842599,1770761654.7825315,0.8897590152561718,1,2.136907637119293,128.2144582271576,1770761749.4832785,1770761621.2688203,1770761658.3308403,0.11024098474382815,0.07551876252160594,0.03472222222222221,0.9652777777777778,1.0,1770761651.9203715,C:\Users\qasim\Desktop\SocialRecognitionTask\STIMULI\VEGETABLE\Carrot\Lure_087.jpg,False,1770761660.2095015,True,1770761658.1509714,False,1.6927964687347412,1770761657.453772,1770761657.453772,1770761657.453772,False,0.9652777777777778,recognition,0.9652777777777778,1770761660.2085032,1.8776628971099854,stay,False,2,lure,False
True,1770761666.1377797,1770761667.8496017,0.75,1.3694221822017285,1770761667.5497642,0.36602169483041513,1,2.136907637119293,128.2144582271576,1770761749.4832785,1770761621.2688203,1770761669.263531,0.36602169483041513,0.3567624355711559,0.009259259259259262,0.009259259259259262,0.0,1770761663.6009426,C:\Users\qasim\Desktop\SocialRecognitionTask\STIMULI\biganimal\Giraffe\Image_006.jpg,True,1770761669.7531345,True,1770761666.1367793,True,1.4124722480773926,1770761665.5114298,1770761665.5114298,1770761665.5114298,False,0.009259259259259262,recognition,0.9907407407407407,1770761669.7531345,0.48960351943969727,stay,False,3,studied,False
True,1770761673.943155,1770761676.224038,0.75,2.188370892554054,1770761675.8926075,0.9648912111222584,1,2.136907637119293,128.2144582271576,1770761749.4832785,1770761621.2688203,1770761679.3058531,0.035108788877741604,0.011960640729593575,0.02314814814814803,0.976851851851852,1.0,1770761672.941399,C:\Users\qasim\Desktop\SocialRecognitionTask\STIMULI\FRUIT\Apple\Lure_041.jpg,False,1770761680.1301641,True,1770761679.1742222,False,1.6070477962493896,1770761678.156089,1770761678.156089,1770761678.156089,False,0.976851851851852,recognition,0.976851851851852,1770761680.1281576,0.8223044872283936,stay,False,4,lure,False
True,1770761684.1653962,1770761685.9722672,0.75,1.4918796451498084,1770761685.6758127,0.8483081982053208,1,2.136907637119293,128.2144582271576,1770761749.4832785,1770761621.2688203,1770761688.464685,0.15169180179467923,0.14243254253541993,0.0092592592592593,0.9907407407407407,1.0,1770761683.1636453,C:\Users\qasim\Desktop\SocialRecognitionTask\STIMULI\BIRD\Parrot\Lure_028.jpg,False,1770761689.4347756,True,1770761688.3414798,False,1.0481700897216797,1770761687.729387,1770761687.729387,1770761687.729387,False,0.9907407407407407,recognition,0.9907407407407407,1770761689.4347756,0.9700906276702881,stay,False,5,lure,False
True,1770761695.3657382,1770761697.2678065,0.75,1.6723971601436285,1770761696.9757075,0.9583451818371616,1,2.136907637119293,128.2144582271576,1770761749.4832785,1770761621.2688203,1770761698.6645339,0.04165481816283845,0.03471037371839403,0.00694444444444442,0.9930555555555556,1.0,1770761692.6124547,C:\Users\qasim\Desktop\SocialRecognitionTask\STIMULI\smallobject\Envelope\Lure_075.jpg,False,1770761701.0278015,True,1770761695.3646257,True,1.6479506492614746,"1770761694.4112673,1770761694.8233738",1770761694.4112673,1770761694.8233738,False,0.9930555555555556,recognition,0.9930555555555556,1770761701.0268917,2.3623578548431396,stay,False,6,lure,False
False,1770761705.3090785,1770761707.0896502,0.75,1.522412262078797,1770761706.798194,0.5887301535120635,1,2.136907637119293,128.2144582271576,1770761749.4832785,1770761621.2688203,1770761709.6066697,0.5887301535120635,0.5841005238824338,0.004629629629629602,0.004629629629629602,0.0,1770761704.3080533,C:\Users\qasim\Desktop\SocialRecognitionTask\STIMULI\bigobject\filingcabinet\Image_017.jpg,True,1770761710.442218,True,1770761709.4600189,False,1.069075107574463,1770761708.8075755,1770761708.8075755,1770761708.8075755,False,0.004629629629629602,recognition,0.9953703703703703,1770761710.4412172,0.8345475196838379,stay,False,7,studied,False
True,1770761714.8558507,1770761717.1659613,0.75,2.114985347262584,1770761716.8681781,0.4429719397197289,1,2.136907637119293,128.2144582271576,1770761749.4832785,1770761621.2688203,1770761719.67225,0.4429719397197289,0.4360274952752845,0.006944444444444432,0.006944444444444432,0.0,1770761713.8542814,C:\Users\qasim\Desktop\SocialRecognitionTask\STIMULI\FOOD\Hotdog\Image_035.jpg,True,1770761720.8205335,True,1770761719.5018945,False,0.9786875247955322,1770761718.8664541,1770761718.8664541,1770761718.8664541,False,0.006944444444444432,recognition,0.9930555555555556,1770761720.819533,1.1472830772399902,stay,False,8,studied,False
True,1770761728.1005776,1770761731.2734656,0.75,3.051900251409269,1770761730.6571832,0.4064908983470849,1,2.136907637119293,128.2144582271576,1770761749.4832785,1770761621.2688203,1770761732.7061782,0.4064908983470849,0.3949168242730109,0.011574074074074034,0.011574074074074034,0.0,1770761724.201909,C:\Users\qasim\Desktop\SocialRecognitionTask\STIMULI\VEHICLE\Van\Image_100.jpg,True,1770761733.801344,True,1770761728.0995717,True,2.795858144760132,"1770761727.4882023,1770761727.5371182",1770761727.4882023,1770761727.5371182,False,0.011574074074074034,recognition,0.9884259259259259,1770761733.7998307,1.0936524868011475,stay,False,9,studied,False
True,1770761740.8213274,1770761743.1754656,0.75,2.2926040995177988,1770761742.841152,0.8465902479075559,1,2.136907637119293,128.2144582271576,1770761749.4832785,1770761621.2688203,1770761744.5719867,0.15340975209244412,0.8164976553149633,0.9699074074074074,0.8465902479075559,1.0,1770761736.769071,C:\Users\qasim\Desktop\SocialRecognitionTask\STIMULI\INSECT\Moth\Lure_059.jpg,False,1770761745.7758331,True,1770761740.8203175,True,2.9323506355285645,1770761739.993755,1770761739.993755,1770761739.993755,False,0.030092592592592556,recognition,0.8465902479075559,1770761745.7747111,1.2027244567871094,switch,False,10,lure,True
True,1770761778.251607,1770761782.7787116,0.75,4.4309036709447005,1770761781.774862,0.6965939628204312,2,2.057577379544576,123.45464277267456,1770761881.0570462,1770761757.6024034,1770761785.7557588,0.3034060371795688,0.6711309998574683,0.9745370370370371,0.025462962962962955,1.0,1770761777.2500167,C:\Users\qasim\Desktop\SocialRecognitionTask\STIMULI\BIRD\Hummingbird\Lure_026.jpg,False,1770761786.2319179,False,1770761785.6069694,False,1.4897453784942627,1770761784.759446,1770761784.759446,1770761784.759446,False,0.025462962962962955,recognition,0.02546296296296291,1770761786.2300239,0.47426509857177734,stay,False,1,lure,False
False,1770761791.93369,1770761793.6007032,0.75,1.4292696254601762,1770761793.299835,0.6337652485032107,2,2.057577379544576,123.45464277267456,1770761881.0570462,1770761757.6024034,1770761794.9962943,0.6337652485032107,0.6268208040587663,0.006944444444444432,0.006944444444444432,0.0,1770761789.504061,C:\Users\qasim\Desktop\SocialRecognitionTask\STIMULI\bigobject\Mailbox\Image_019.jpg,True,1770761795.7771232,True,1770761791.93369,True,1.3099875450134277,1770761791.327142,1770761791.327142,1770761791.327142,False,0.006944444444444432,recognition,0.9930555555555556,1770761795.7771232,0.7808289527893066,stay,False,2,studied,False
True,1770761800.0727677,1770761802.256509,0.75,1.9897638800697877,1770761801.9596508,0.38512781073784097,2,2.057577379544576,123.45464277267456,1770761881.0570462,1770761757.6024034,1770761804.9054644,0.38512781073784097,0.37355373666376696,0.011574074074074034,0.011574074074074034,0.0,1770761799.071261,C:\Users\qasim\Desktop\SocialRecognitionTask\STIMULI\biganimal\Alligator\Image_001.jpg,True,1770761805.9773667,True,1770761804.6947749,False,1.103266716003418,1770761804.1389344,1770761804.1389344,1770761804.1389344,False,0.011574074074074034,recognition,0.9884259259259259,1770761805.9761095,1.0706450939178467,stay,False,3,studied,False
True,1770761810.0432484,1770761811.6665313,0.75,1.3228616273334848,1770761811.375306,0.28956182419560517,2,2.057577379544576,123.45464277267456,1770761881.0570462,1770761757.6024034,1770761814.1219223,0.28956182419560517,0.2640988612326422,0.025462962962962955,0.025462962962962955,0.0,1770761809.042529,C:\Users\qasim\Desktop\SocialRecognitionTask\STIMULI\smallobject\Blender\Image_073.jpg,True,1770761815.1334999,True,1770761813.9600277,False,0.9618384838104248,"1770761813.0847807,1770761813.3173454",1770761813.0847807,1770761813.3173454,False,0.025462962962962955,recognition,0.9745370370370371,1770761815.1325052,1.0105829238891602,stay,False,4,studied,False
False,1770761820.9536407,1770761823.107715,0.75,2.0260130935363274,1770761822.8238454,0.6519107201840046,2,2.057577379544576,123.45464277267456,1770761881.0570462,1770761757.6024034,1770761824.5228262,0.6519107201840046,0.6310773868506714,0.020833333333333294,0.020833333333333294,0.0,1770761818.2748575,C:\Users\qasim\Desktop\SocialRecognitionTask\STIMULI\smallanimal\Beaver\Image_061.jpg,True,1770761825.32569,True,1770761820.9536407,True,1.5778753757476807,1770761820.2575607,1770761820.2575607,1770761820.2575607,False,0.020833333333333294,recognition,0.9791666666666667,1770761825.32569,0.8028638362884521,stay,False,5,studied,False
True,1770761831.679237,1770761833.4323385,0.75,1.4706187920767133,1770761833.132658,0.42309590039560363,2,2.057577379544576,123.45464277267456,1770761881.0570462,1770761757.6024034,1770761834.8136346,0.42309590039560363,0.39763293743264067,0.025462962962962955,0.025462962962962955,0.0,1770761828.7151763,C:\Users\qasim\Desktop\SocialRecognitionTask\STIMULI\FRUIT\Blueberry\Image_043.jpg,True,1770761835.2248752,True,1770761831.6782367,True,1.8473358154296875,1770761831.0278988,1770761831.0278988,1770761831.0278988,False,0.025462962962962955,recognition,0.9745370370370371,1770761835.2248752,0.4112405776977539,stay,False,6,studied,False
True,1770761840.8591318,1770761843.169424,0.75,2.240022138969059,1770761842.8616378,0.8669069197357668,2,2.057577379544576,123.45464277267456,1770761881.0570462,1770761757.6024034,1770761844.6228461,0.13309308026423317,0.10994493211608514,0.02314814814814803,0.976851851851852,1.0,1770761838.2238436,C:\Users\qasim\Desktop\SocialRecognitionTask\STIMULI\INSECT\Bug\Lure_054.jpg,False,1770761845.076472,True,1770761840.8591318,True,1.4976272583007812,1770761839.958383,1770761839.958383,1770761839.958383,False,0.976851851851852,recognition,0.976851851851852,1770761845.076472,0.4536259174346924,stay,False,7,lure,False
True,1770761851.9220355,1770761853.6266499,0.75,1.4139374477925628,1770761853.3239083,0.9531628791552188,2,2.057577379544576,123.45464277267456,1770761881.0570462,1770761757.6024034,1770761855.055516,0.0468371208447812,0.0375778615855219,0.0092592592592593,0.9907407407407407,1.0,1770761848.1914937,C:\Users\qasim\Desktop\SocialRecognitionTask\STIMULI\VEGETABLE\Bean\Lure_085.jpg,False,1770761855.5830407,True,1770761851.918741,True,2.607604503631592,1770761850.9447792,1770761850.9447792,1770761850.9447792,False,0.9907407407407407,recognition,0.9907407407407407,1770761855.5830407,0.5275247097015381,stay,False,8,lure,False
True,1770761859.9452646,1770761861.9240568,0.75,1.7819184172156444,1770761861.6229906,0.9240931613171658,2,2.057577379544576,123.45464277267456,1770761881.0570462,1770761757.6024034,1770761864.5468702,0.07590683868283421,0.06896239423838979,0.00694444444444442,0.9930555555555556,1.0,1770761858.9440577,C:\Users\qasim\Desktop\SocialRecognitionTask\STIMULI\FOOD\Pizza\Lure_039.jpg,False,1770761865.3019984,True,1770761864.4031682,False,1.1378400325775146,1770761863.7582822,1770761863.7582822,1770761863.7582822,False,0.9930555555555556,recognition,0.9930555555555556,1770761865.301025,0.7541546821594238,stay,False,9,lure,False
True,1770761869.5376935,1770761871.2021337,0.75,1.272144101806136,1770761870.8985398,0.9305143751063947,2,2.057577379544576,123.45464277267456,1770761881.0570462,1770761757.6024034,1770761874.297077,0.06948562489360532,0.055596736004716485,0.01388888888888884,0.9861111111111112,1.0,1770761868.536351,C:\Users\qasim\Desktop\SocialRecognitionTask\STIMULI\VEHICLE\Boat\Lure_093.jpg,False,1770761875.466664,True,1770761874.1202526,False,1.5732386112213135,1770761873.1213427,1770761873.1213427,1770761873.1213427,False,0.9861111111111112,recognition,0.9861111111111112,1770761875.465664,1.1685869693756104,stay,False,10,lure,False
True,1770761907.7720327,1770761910.3183358,0.75,2.4549071639864577,1770761909.915642,0.35251500557294063,3,2.033586649099986,122.01519894599915,1770762007.0571153,1770761885.0419164,1770761911.713908,0.35251500557294063,0.32010759816553325,0.032407407407407385,0.032407407407407385,0.0,1770761905.12727,C:\Users\qasim\Desktop\SocialRecognitionTask\STIMULI\VEHICLE\Bike\Image_092.jpg,True,1770761912.648537,True,1770761907.7710335,True,1.5021474361419678,1770761907.1360059,1770761907.1360059,1770761907.1360059,False,0.032407407407407385,recognition,0.9675925925925926,1770761912.6475291,0.9336211681365967,stay,False,1,studied,False
True,1770761917.066175,1770761918.7568517,0.75,1.2705793881462202,1770761918.4572911,0.2585420845979515,3,2.033586649099986,122.01519894599915,1770762007.0571153,1770761885.0419164,1770761921.3475852,0.2585420845979515,0.25391245496832193,0.004629629629629602,0.004629629629629602,0.0,1770761916.0658486,C:\Users\qasim\Desktop\SocialRecognitionTask\STIMULI\smallobject\Camera\Image_074.jpg,True,1770761922.047322,True,1770761921.2208374,False,1.1377551555633545,1770761920.5346699,1770761920.5346699,1770761920.5346699,False,0.004629629629629602,recognition,0.9953703703703703,1770761922.046322,0.6987369060516357,stay,False,2,studied,False
True,1770761927.485688,1770761929.548248,0.75,1.8624562433029963,1770761929.2503464,0.4039361426486799,3,2.033586649099986,122.01519894599915,1770762007.0571153,1770761885.0419164,1770761930.9488175,0.4039361426486799,0.4016213278338651,0.002314814814814772,0.002314814814814772,0.0,1770761925.0434625,C:\Users\qasim\Desktop\SocialRecognitionTask\STIMULI\biganimal\Horse\Image_008.jpg,True,1770761931.4246783,True,1770761927.4846876,True,1.303797960281372,1770761926.8829348,1770761926.8829348,1770761926.8829348,False,0.002314814814814772,recognition,0.9976851851851852,1770761931.4246783,0.4758608341217041,stay,False,3,studied,False
True,1770761937.6626642,1770761939.8990698,0.75,2.098459971107052,1770761939.6012754,0.9114221908723813,3,2.033586649099986,122.01519894599915,1770762007.0571153,1770761885.0419164,1770761941.3143883,0.0885778091276187,0.07468892023872986,0.01388888888888884,0.9861111111111112,1.0,1770761934.7081223,C:\Users\qasim\Desktop\SocialRecognitionTask\STIMULI\bigobject\coatrack\Lure_015.jpg,False,1770761942.0212219,True,1770761937.6616642,True,1.853278398513794,1770761936.8589609,1770761936.8589609,1770761936.8589609,False,0.9861111111111112,recognition,0.9861111111111112,1770761942.0181272,0.7037389278411865,stay,False,4,lure,False
False,1770761946.39112,1770761948.0914748,0.75,1.3919379877552207,1770761947.8091087,0.1318084293158584,3,2.033586649099986,122.01519894599915,1770762007.0571153,1770761885.0419164,1770761950.9968405,0.8681915706841417,0.8681915706841417,0.0,1.0,1.0,1770761945.3899472,C:\Users\qasim\Desktop\SocialRecognitionTask\STIMULI\FRUIT\Mulberry\Lure_045.jpg,False,1770761952.1049297,True,1770761950.8201823,False,1.387690544128418,1770761950.0409136,1770761950.0409136,1770761950.0409136,False,1.0,recognition,1.0,1770761952.10393,1.1070895195007324,stay,False,5,lure,False
True,1770761958.1673286,1770761959.8814692,0.75,1.4796393755320079,1770761959.5996273,0.7924482445877994,3,2.033586649099986,122.01519894599915,1770762007.0571153,1770761885.0419164,1770761961.2997174,0.2075517554122006,0.1913480517084969,0.01620370370370372,0.9837962962962963,1.0,1770761955.4576273,C:\Users\qasim\Desktop\SocialRecognitionTask\STIMULI\smallanimal\Cat\Lure_062.jpg,False,1770761962.2153127,True,1770761958.1673286,True,1.559351921081543,"1770761957.3954337,1770761957.5720377",1770761957.3954337,1770761957.5720377,False,0.9837962962962963,recognition,0.9837962962962963,1770761962.2137764,0.9140589237213135,stay,False,6,lure,False
True,1770761968.1513228,1770761969.9067416,0.75,1.53932307004248,1770761969.623141,0.8098319462837167,3,2.033586649099986,122.01519894599915,1770762007.0571153,1770761885.0419164,1770761971.306117,0.19016805371628331,0.16239027593850563,0.02777777777777768,0.9722222222222223,1.0,1770761965.182619,C:\Users\qasim\Desktop\SocialRecognitionTask\STIMULI\FOOD\Pasta\Lure_037.jpg,False,1770761971.9421282,True,1770761968.1513228,True,1.8627338409423828,1770761967.2750852,1770761967.2750852,1770761967.2750852,False,0.9722222222222223,recognition,0.9722222222222223,1770761971.9416232,0.6355061531066895,stay,False,7,lure,False
True,1770761976.2673504,1770761978.495971,0.75,2.11723645779285,1770761978.1904757,0.4200222483380149,3,2.033586649099986,122.01519894599915,1770762007.0571153,1770761885.0419164,1770761981.0648594,0.4200222483380149,0.4153926187083853,0.004629629629629602,0.004629629629629602,0.0,1770761975.2664423,C:\Users\qasim\Desktop\SocialRecognitionTask\STIMULI\BIRD\Duck\Image_022.jpg,True,1770761981.6723585,True,1770761980.9070559,False,1.054856777191162,1770761980.2091923,1770761980.2091923,1770761980.2091923,False,0.004629629629629602,recognition,0.9953703703703703,1770761981.671358,0.6064987182617188,stay,False,8,studied,False
True,1770761986.126338,1770761987.5743918,0.75,1.1015998142924541,1770761987.2903583,0.41384271529849165,3,2.033586649099986,122.01519894599915,1770762007.0571153,1770761885.0419164,1770761990.5807512,0.41384271529849165,0.3768056782614546,0.03703703703703705,0.03703703703703705,0.0,1770761985.1263597,C:\Users\qasim\Desktop\SocialRecognitionTask\STIMULI\INSECT\Wasp\Image_060.jpg,True,1770761991.4499812,True,1770761990.4173894,False,1.4856626987457275,1770761989.2894034,1770761989.2894034,1770761989.2894034,False,0.03703703703703705,recognition,0.9629629629629629,1770761991.4499812,0.8692300319671631,stay,False,9,studied,False
False,1770761995.8470907,1770761997.8495336,0.75,1.761836570654908,1770761997.5646062,0.14686812868292345,3,2.033586649099986,122.01519894599915,1770762007.0571153,1770761885.0419164,1770762001.0556896,0.8531318713170766,0.1352940546088494,0.9884259259259259,0.011574074074074034,1.0,1770761994.8466153,C:\Users\qasim\Desktop\SocialRecognitionTask\STIMULI\VEGETABLE\Avocado\Lure_083.jpg,False,1770762001.8462963,False,1770762000.8661602,False,1.6805064678192139,1770762000.3174503,1770762000.3174503,1770762000.3174503,False,0.011574074074074034,recognition,0.01157407407407407,1770762001.8452811,0.7895915508270264,stay,False,10,lure,False
False,1770762038.65425,1770762040.9002824,0.25,2.041214724161196,1770762040.5991488,0.59894961279373,4,2.0731685678164165,124.39011406898499,1770762139.9326615,1770762015.5425475,1770762042.297678,0.59894961279373,0.5966347979789153,0.002314814814814772,0.002314814814814772,0.0,1770762035.790425,C:\Users\qasim\Desktop\SocialRecognitionTask\STIMULI\FOOD\icecream\Image_036.jpg,True,1770762042.7589293,True,1770762038.6532493,True,1.7579870223999023,"1770762037.8439522,1770762038.092409",1770762037.8439522,1770762038.092409,False,0.002314814814814772,recognition,0.9976851851851852,1770762042.7589293,0.46125125885009766,stay,False,1,studied,False
False,1770762046.8081307,1770762048.3567107,0.25,1.0726911140053867,1770762048.0617585,0.7110449966471717,4,2.0731685678164165,124.39011406898499,1770762139.9326615,1770762015.5425475,1770762051.0299852,0.7110449966471717,0.6971561077582829,0.013888888888888864,0.013888888888888864,0.0,1770762045.8075557,C:\Users\qasim\Desktop\SocialRecognitionTask\STIMULI\smallanimal\Groundhog\Image_065.jpg,True,1770762052.4582288,True,1770762050.8593802,False,1.1589527130126953,1770762050.1759121,1770762050.1759121,1770762050.1759121,False,0.013888888888888864,recognition,0.9861111111111112,1770762052.4582288,1.428243637084961,stay,False,2,studied,False
True,1770762058.6523843,1770762060.3661494,0.25,1.5318471799342235,1770762060.1000578,0.8101768479569618,4,2.0731685678164165,124.39011406898499,1770762139.9326615,1770762015.5425475,1770762061.7636065,0.18982315204303823,0.7916583294384433,0.9814814814814815,0.018518518518518524,1.0,1770762055.3909276,C:\Users\qasim\Desktop\SocialRecognitionTask\STIMULI\biganimal\Zebra\Lure_010.jpg,False,1770762062.3352628,False,1770762058.6513844,True,2.1237902641296387,1770762057.9422734,1770762057.9422734,1770762057.9422734,False,0.018518518518518524,recognition,0.01851851851851849,1770762062.3352628,0.5716562271118164,stay,False,3,lure,False
True,1770762069.2150111,1770762070.9583466,0.25,1.406204071147576,1770762070.6737134,0.41323844587103853,4,2.0731685678164165,124.39011406898499,1770762139.9326615,1770762015.5425475,1770762072.3736687,0.41323844587103853,0.3900902977228904,0.023148148148148126,0.023148148148148126,0.0,1770762065.622991,C:\Users\qasim\Desktop\SocialRecognitionTask\STIMULI\VEGETABLE\Squash\Image_090.jpg,True,1770762072.971877,True,1770762069.2150111,True,2.5244224071502686,1770762068.6025944,1770762068.6025944,1770762068.6025944,False,0.023148148148148126,recognition,0.9768518518518519,1770762072.9708781,0.5972094535827637,stay,False,4,studied,False
False,1770762077.0591178,1770762080.342901,0.25,3.1849780050820855,1770762079.7365847,0.21266310658486326,4,2.0731685678164165,124.39011406898499,1770762139.9326615,1770762015.5425475,1770762082.514448,0.7873368934151368,0.782707263785507,0.00462962962962965,0.9953703703703703,1.0,1770762076.0570436,C:\Users\qasim\Desktop\SocialRecognitionTask\STIMULI\FRUIT\Peach\Lure_047.jpg,False,1770762083.525243,True,1770762082.384486,False,0.7312428951263428,1770762081.6848536,1770762081.6848536,1770762081.6848536,False,0.9953703703703703,recognition,0.9953703703703703,1770762083.52425,1.0098021030426025,stay,False,5,lure,False
False,1770762087.9689016,1770762089.2569747,0.25,0.8369109017027961,1770762088.9891024,0.26333201917303384,4,2.0731685678164165,124.39011406898499,1770762139.9326615,1770762015.5425475,1770762092.214262,0.7366679808269662,0.7274087215677069,0.0092592592592593,0.9907407407407407,1.0,1770762086.9663732,C:\Users\qasim\Desktop\SocialRecognitionTask\STIMULI\INSECT\Bee\Lure_052.jpg,False,1770762092.9210362,True,1770762092.0842206,False,1.5092535018920898,1770762091.4486594,1770762091.4486594,1770762091.4486594,False,0.9907407407407407,recognition,0.9907407407407407,1770762092.9180348,0.703772783279419,stay,False,6,lure,False
False,1770762096.8614852,1770762098.7738388,0.25,1.6707374605723369,1770762098.4909427,0.0599567455313058,4,2.0731685678164165,124.39011406898499,1770762139.9326615,1770762015.5425475,1770762101.7968814,0.9400432544686942,0.9261543655798053,0.01388888888888884,0.9861111111111112,1.0,1770762095.8602738,C:\Users\qasim\Desktop\SocialRecognitionTask\STIMULI\BIRD\Penguin\Lure_030.jpg,False,1770762102.3442123,True,1770762101.5675473,False,1.461637258529663,1770762100.841269,1770762100.841269,1770762100.841269,False,0.9861111111111112,recognition,0.9861111111111112,1770762102.3432128,0.5463314056396484,stay,False,7,lure,False
False,1770762106.753623,1770762108.9485626,0.25,2.097347582527988,1770762108.6492605,0.7115405308147922,4,2.0731685678164165,124.39011406898499,1770762139.9326615,1770762015.5425475,1770762111.4730823,0.7115405308147922,0.7069109011851625,0.004629629629629602,0.004629629629629602,0.0,1770762105.7520108,C:\Users\qasim\Desktop\SocialRecognitionTask\STIMULI\smallobject\Lamp\Image_080.jpg,True,1770762112.1138868,True,1770762111.3442268,False,1.0167832374572754,1770762110.5876188,1770762110.5876188,1770762110.5876188,False,0.004629629629629602,recognition,0.9953703703703703,1770762112.1108875,0.6378052234649658,stay,False,8,studied,False
False,1770762118.204976,1770762120.6209087,0.25,2.337223446675816,1770762120.2585237,0.7493047798528804,4,2.0731685678164165,124.39011406898499,1770762139.9326615,1770762015.5425475,1770762122.0236313,0.7493047798528804,0.7493047798528804,0.0,0.0,0.0,1770762115.2917407,C:\Users\qasim\Desktop\SocialRecognitionTask\STIMULI\VEHICLE\cruiseship\Image_096.jpg,True,1770762122.5712295,True,1770762118.2039795,True,1.8077876567840576,"1770762117.118739,1770762117.3927803",1770762117.118739,1770762117.3927803,False,0.0,recognition,1.0,1770762122.5702293,0.546597957611084,stay,False,9,studied,False
False,1770762129.5673938,1770762131.1163454,0.25,1.189188190651545,1770762130.8188014,0.08192075894268525,4,2.0731685678164165,124.39011406898499,1770762139.9326615,1770762015.5425475,1770762132.514297,0.9180792410573148,0.9157644262425,0.0023148148148147696,0.9976851851851852,1.0,1770762125.7745874,C:\Users\qasim\Desktop\SocialRecognitionTask\STIMULI\bigobject\Phonebooth\Lure_020.jpg,False,1770762133.4583514,True,1770762129.5664084,True,2.6878161430358887,"1770762127.3622422,1770762127.8374226",1770762127.3622422,1770762127.8374226,False,0.9976851851851852,recognition,0.9976851851851852,1770762133.4583514,0.944054365158081,stay,False,10,lure,False
False,1770762171.625646,1770762173.7158413,0.25,1.9149925849843978,1770762173.4316533,0.0035073037702993692,5,2.1390435417493183,128.3426125049591,1770762278.2501016,1770762149.907489,1770762177.2140043,0.9964926962297006,0.9872334369704413,0.0092592592592593,0.9907407407407407,1.0,1770762170.6239297,C:\Users\qasim\Desktop\SocialRecognitionTask\STIMULI\VEGETABLE\Arugula\Lure_081.jpg,False,1770762177.815797,True,1770762177.0204115,False,1.9575791358947754,1770762176.3183734,1770762176.3183734,1770762176.3183734,False,0.9907407407407407,recognition,0.9907407407407407,1770762177.815797,0.6017928123474121,stay,False,1,lure,False
False,1770762183.8847268,1770762185.5105915,0.25,1.3243095177674395,1770762185.207118,0.03214752938179817,5,2.1390435417493183,128.3426125049591,1770762278.2501016,1770762149.907489,1770762186.9055054,0.9678524706182018,0.9678524706182018,0.0,1.0,1.0,1770762181.3228974,C:\Users\qasim\Desktop\SocialRecognitionTask\STIMULI\smallobject\Basket\Lure_072.jpg,False,1770762187.4514713,True,1770762183.8847268,True,1.4426190853118896,1770762183.2009587,1770762183.2009587,1770762183.2009587,False,1.0,recognition,1.0,1770762187.4501088,0.5446033477783203,stay,False,2,lure,False
False,1770762193.3915083,1770762195.0233247,0.25,1.351376564414591,1770762194.7242286,0.5982927137980206,5,2.1390435417493183,128.3426125049591,1770762278.2501016,1770762149.907489,1770762196.4562445,0.5982927137980206,0.5890334545387613,0.009259259259259262,0.009259259259259262,0.0,1770762190.7316191,C:\Users\qasim\Desktop\SocialRecognitionTask\STIMULI\biganimal\Walrus\Image_009.jpg,True,1770762197.1126587,True,1770762193.3915083,True,1.5877454280853271,1770762192.3602624,1770762192.3602624,1770762192.3602624,False,0.009259259259259262,recognition,0.9907407407407407,1770762197.110654,0.654409646987915,stay,False,3,studied,False
False,1770762201.3794773,1770762203.5355005,0.25,2.025776209643576,1770762203.2356453,0.21783026590301283,5,2.1390435417493183,128.3426125049591,1770762278.2501016,1770762149.907489,1770762206.363342,0.7821697340969872,0.7775401044673576,0.00462962962962965,0.9953703703703703,1.0,1770762200.3778286,C:\Users\qasim\Desktop\SocialRecognitionTask\STIMULI\FOOD\Soup\Lure_040.jpg,False,1770762207.0724106,True,1770762206.2265866,False,1.358888864517212,1770762205.4944117,1770762205.4944117,1770762205.4944117,False,0.9953703703703703,recognition,0.9953703703703703,1770762207.0713942,0.7080521583557129,stay,False,4,lure,False
True,1770762211.5287423,1770762213.5853274,0.25,1.8439945930220998,1770762213.2816956,0.3622160896232232,5,2.1390435417493183,128.3426125049591,1770762278.2501016,1770762149.907489,1770762217.0472448,0.3622160896232232,0.3622160896232232,0.0,0.0,0.0,1770762210.5275218,C:\Users\qasim\Desktop\SocialRecognitionTask\STIMULI\smallanimal\Dog\Image_063.jpg,True,1770762217.9419816,True,1770762216.8650784,False,1.943767786026001,"1770762215.5144002,1770762215.5341408,1770762215.7578707",1770762215.5144002,1770762215.7578707,False,0.0,recognition,1.0,1770762217.9409795,0.8937346935272217,stay,False,5,studied,False
True,1770762224.1182244,1770762226.2820873,0.25,2.062817410982663,1770762226.002054,0.35952047620677197,5,2.1390435417493183,128.3426125049591,1770762278.2501016,1770762149.907489,1770762227.6628978,0.35952047620677197,0.3410019576882534,0.018518518518518524,0.018518518518518524,0.0,1770762221.3168108,C:\Users\qasim\Desktop\SocialRecognitionTask\STIMULI\bigobject\Chair\Image_013.jpg,True,1770762228.2669244,True,1770762224.1172242,True,1.682192087173462,1770762223.1425192,1770762223.1425192,1770762223.1425192,False,0.018518518518518524,recognition,0.9814814814814815,1770762228.2669244,0.6040265560150146,stay,False,6,studied,False
False,1770762235.8571715,1770762238.7026544,0.25,2.800410772176628,1770762238.2587874,0.7377617134121688,5,2.1390435417493183,128.3426125049591,1770762278.2501016,1770762149.907489,1770762240.1395576,0.7377617134121688,0.7331320837825391,0.004629629629629602,0.004629629629629602,0.0,1770762231.7261252,C:\Users\qasim\Desktop\SocialRecognitionTask\STIMULI\VEHICLE\Helicopter\Image_097.jpg,True,1770762240.8505254,True,1770762235.8571715,True,3.001376152038574,1770762235.1932306,1770762235.1932306,1770762235.1932306,False,0.004629629629629602,recognition,0.9953703703703703,1770762240.8505254,0.7109677791595459,stay,False,7,studied,False
False,1770762244.871055,1770762246.6061296,0.25,1.5191311820400262,1770762246.32481,0.14183491355692074,5,2.1390435417493183,128.3426125049591,1770762278.2501016,1770762149.907489,1770762249.3809817,0.8581650864430792,0.8581650864430792,0.0,1.0,1.0,1770762243.8700166,C:\Users\qasim\Desktop\SocialRecognitionTask\STIMULI\BIRD\Chicken\Lure_021.jpg,False,1770762250.3253927,True,1770762249.1252832,False,1.20296049118042,1770762248.3658354,1770762248.3658354,1770762248.3658354,False,1.0,recognition,1.0,1770762250.32411,0.9431283473968506,stay,False,8,lure,False
False,1770762254.8623347,1770762256.5517669,0.25,1.3190674898492225,1770762256.2505088,0.6620675734212411,5,2.1390435417493183,128.3426125049591,1770762278.2501016,1770762149.907489,1770762262.9220307,0.6620675734212411,0.24071020435653667,0.9027777777777778,0.9027777777777778,0.0,1770762253.861301,C:\Users\qasim\Desktop\SocialRecognitionTask\STIMULI\FRUIT\Pineapple\Image_048.jpg,True,1770762263.8619854,False,1770762262.7197258,False,4.815317153930664,"1770762260.483054,1770762261.8180242",1770762260.483054,1770762261.8180242,False,0.9027777777777778,recognition,0.09722222222222221,1770762263.8609834,0.9389526844024658,stay,False,9,studied,False
False,1770762269.3372393,1770762271.079995,0.25,1.4725097094914805,1770762270.7743921,0.02485245847788764,5,2.1390435417493183,128.3426125049591,1770762278.2501016,1770762149.907489,1770762272.5046818,0.9751475415221124,0.9519993933739643,0.02314814814814803,0.976851851851852,1.0,1770762267.1502066,C:\Users\qasim\Desktop\SocialRecognitionTask\STIMULI\INSECT\Beetle\Lure_053.jpg,False,1770762272.9217467,True,1770762269.3372393,True,1.0713279247283936,1770762268.7394516,1770762268.7394516,1770762268.7394516,False,0.976851851851852,recognition,0.976851851851852,1770762272.9207463,0.4160645008087158,stay,False,10,lure,False
True,1770762305.8839731,1770762307.6304026,0.75,1.4640738507581972,1770762307.3533437,0.2629441164961527,6,2.0818331758181254,124.90999054908752,1770762409.0821779,1770762284.1721873,1770762309.0654552,0.2629441164961527,0.23748115353318971,0.025462962962962955,0.025462962962962955,0.0,1770762303.534764,C:\Users\qasim\Desktop\SocialRecognitionTask\STIMULI\smallanimal\Mouse\Image_069.jpg,True,1770762309.4753788,True,1770762305.8834705,True,1.2452070713043213,1770762305.2680826,1770762305.2680826,1770762305.2680826,False,0.025462962962962955,recognition,0.9745370370370371,1770762309.4753788,0.4099235534667969,stay,False,1,studied,False
True,1770762313.7923603,1770762315.6736119,0.75,1.7703404548814752,1770762315.4228346,0.9773377228808118,6,2.0818331758181254,124.90999054908752,1770762409.0821779,1770762284.1721873,1770762318.6552396,0.022662277119188223,0.020347462304373454,0.0023148148148147696,0.9976851851851852,1.0,1770762312.7913072,C:\Users\qasim\Desktop\SocialRecognitionTask\STIMULI\VEHICLE\Jeep\Lure_098.jpg,False,1770762320.6200163,True,1770762318.4658868,False,1.5096170902252197,1770762317.7673397,1770762317.7673397,1770762317.7673397,False,0.9976851851851852,recognition,0.9976851851851852,1770762320.6200163,1.9647767543792725,stay,False,2,lure,False
True,1770762326.4320807,1770762329.1748722,0.75,2.6803667523015493,1770762328.6890223,0.7251237829274135,6,2.0818331758181254,124.90999054908752,1770762409.0821779,1770762284.1721873,1770762330.571697,0.27487621707258647,0.26793177262814205,0.00694444444444442,0.9930555555555556,1.0,1770762323.9283857,C:\Users\qasim\Desktop\SocialRecognitionTask\STIMULI\VEGETABLE\Pepper\Lure_089.jpg,False,1770762331.5048296,True,1770762326.4320807,True,1.4054431915283203,1770762325.769281,1770762325.769281,1770762325.769281,False,0.9930555555555556,recognition,0.9930555555555556,1770762331.5038283,0.932131290435791,stay,False,3,lure,False
True,1770762335.7391143,1770762337.7826371,0.75,1.9164380356148405,1770762337.4812841,0.34313310217971654,6,2.0818331758181254,124.90999054908752,1770762409.0821779,1770762284.1721873,1770762340.9038336,0.34313310217971654,0.3338738429204573,0.009259259259259262,0.009259259259259262,0.0,1770762334.7370977,C:\Users\qasim\Desktop\SocialRecognitionTask\STIMULI\bigobject\Barrel\Image_011.jpg,True,1770762341.750283,True,1770762340.7729456,False,1.6050267219543457,"1770762339.1922255,1770762339.2688804,1770762339.5123332",1770762339.1922255,1770762339.5123332,False,0.009259259259259262,recognition,0.9907407407407407,1770762341.750283,0.8464493751525879,stay,False,4,studied,False
False,1770762347.5542395,1770762349.2032871,0.75,1.3225356936792239,1770762348.9002438,0.5434550351719424,6,2.0818331758181254,124.90999054908752,1770762409.0821779,1770762284.1721873,1770762350.6305351,0.5434550351719424,0.5388254055423127,0.004629629629629602,0.004629629629629602,0.0,1770762345.0356085,C:\Users\qasim\Desktop\SocialRecognitionTask\STIMULI\BIRD\Hawk\Image_025.jpg,True,1770762351.0419014,True,1770762347.5532389,True,1.3997166156768799,1770762346.9786468,1770762346.9786468,1770762346.9786468,False,0.004629629629629602,recognition,0.9953703703703703,1770762351.0419014,0.41136622428894043,stay,False,5,studied,False
True,1770762355.136612,1770762356.4586437,0.75,0.7942784181283551,1770762356.1660829,0.45335796559927394,6,2.0818331758181254,124.90999054908752,1770762409.0821779,1770762284.1721873,1770762360.80531,0.45335796559927394,0.427895002636311,0.025462962962962955,0.025462962962962955,0.0,1770762354.1357243,C:\Users\qasim\Desktop\SocialRecognitionTask\STIMULI\smallobject\Key\Image_079.jpg,True,1770762361.6404712,True,1770762360.5853355,False,2.7407732009887695,"1770762359.2323716,1770762359.632589",1770762359.2323716,1770762359.632589,False,0.025462962962962955,recognition,0.9745370370370371,1770762361.6404712,0.8351612091064453,stay,False,6,studied,False
True,1770762365.9582245,1770762368.0400722,0.75,1.9816007057149152,1770762367.7583888,0.93710032945691,6,2.0818331758181254,124.90999054908752,1770762409.0821779,1770762284.1721873,1770762371.1047993,0.06289967054308998,0.06058485572827521,0.0023148148148147696,0.9976851851851852,1.0,1770762364.9579911,C:\Users\qasim\Desktop\SocialRecognitionTask\STIMULI\INSECT\Ant\Lure_051.jpg,False,1770762371.8510916,True,1770762370.9164975,False,1.5024547576904297,1770762370.1289704,1770762370.1289704,1770762370.1289704,False,0.9976851851851852,recognition,0.9976851851851852,1770762371.8500915,0.7452921867370605,stay,False,7,lure,False
True,1770762379.6915362,1770762382.1355326,0.75,2.383509010986622,1770762381.757906,0.2482266972988077,6,2.0818331758181254,124.90999054908752,1770762409.0821779,1770762284.1721873,1770762383.538079,0.2482266972988077,0.7401992286271182,0.9884259259259259,0.9884259259259259,0.0,1770762375.1828766,C:\Users\qasim\Desktop\SocialRecognitionTask\STIMULI\biganimal\Elephant\Image_005.jpg,True,1770762385.3984523,False,1770762379.6905448,True,3.414410352706909,1770762378.4422305,1770762378.4422305,1770762378.4422305,False,0.9884259259259259,recognition,0.01157407407407407,1770762385.3984523,1.8603732585906982,stay,False,8,studied,False
True,1770762389.5416598,1770762391.414846,0.75,1.6459210684551657,1770762391.1323674,0.832807327380876,6,2.0818331758181254,124.90999054908752,1770762409.0821779,1770762284.1721873,1770762394.0476665,0.16719267261912396,0.1625630429894943,0.00462962962962965,0.9953703703703703,1.0,1770762388.5405703,C:\Users\qasim\Desktop\SocialRecognitionTask\STIMULI\FRUIT\Strawberry\Lure_049.jpg,False,1770762394.8979485,True,1770762393.8850577,False,1.1287899017333984,1770762393.2492263,1770762393.2492263,1770762393.2492263,False,0.9953703703703703,recognition,0.9953703703703703,1770762394.8979485,0.8502819538116455,stay,False,9,lure,False
False,1770762400.7185547,1770762402.9236696,0.75,2.120535882889507,1770762402.6265929,0.15010472770163216,6,2.0818331758181254,124.90999054908752,1770762409.0821779,1770762284.1721873,1770762404.344495,0.8498952722983678,0.8498952722983678,0.0,1.0,1.0,1770762398.0999503,C:\Users\qasim\Desktop\SocialRecognitionTask\STIMULI\FOOD\Donut\Lure_034.jpg,False,1770762404.7436135,True,1770762400.7185547,True,1.486140251159668,1770762399.9058313,1770762399.9058313,1770762399.9058313,False,1.0,recognition,1.0,1770762404.7436135,0.39911842346191406,stay,False,10,lure,False
True,1770762434.8035343,1770762436.5832756,0.75,1.3771337883966674,1770762436.2841234,0.31649549318012515,7,2.0795640190442404,124.77384114265442,1770762536.8812277,1770762412.1073866,1770762438.0131052,0.31649549318012515,0.30492141910605114,0.011574074074074034,0.011574074074074034,0.0,1770762432.0151694,C:\Users\qasim\Desktop\SocialRecognitionTask\STIMULI\bigobject\hottub\Image_018.jpg,True,1770762438.467488,True,1770762434.8035343,True,1.6859936714172363,1770762434.1945333,1770762434.1945333,1770762434.1945333,False,0.011574074074074034,recognition,0.9884259259259259,1770762438.466488,0.4533827304840088,stay,False,1,studied,False
True,1770762442.788725,1770762445.2052085,0.75,2.3266398196964824,1770762444.882137,0.9247081596153468,7,2.0795640190442404,124.77384114265442,1770762536.8812277,1770762412.1073866,1770762448.5139284,0.0752918403846532,0.0752918403846532,0.0,1.0,1.0,1770762441.7873313,C:\Users\qasim\Desktop\SocialRecognitionTask\STIMULI\FOOD\Bagel\Lure_031.jpg,False,1770762449.183844,True,1770762448.3719091,False,1.822676420211792,1770762447.7076688,1770762447.7076688,1770762447.7076688,False,1.0,recognition,1.0,1770762449.1828468,0.6689183712005615,stay,False,2,lure,False
True,1770762455.0639606,1770762456.8991227,0.75,1.5107615242887582,1770762456.598256,0.2899047478843345,7,2.0795640190442404,124.77384114265442,1770762536.8812277,1770762412.1073866,1770762458.3141043,0.2899047478843345,0.2760158589954457,0.013888888888888864,0.013888888888888864,0.0,1770762452.1448789,C:\Users\qasim\Desktop\SocialRecognitionTask\STIMULI\smallanimal\Koala\Image_067.jpg,True,1770762459.4718263,True,1770762455.0629623,True,1.8246231079101562,"1770762454.1909976,1770762454.337405",1770762454.1909976,1770762454.337405,False,0.013888888888888864,recognition,0.9861111111111112,1770762459.4698386,1.1557343006134033,stay,False,3,studied,False
True,1770762463.747658,1770762466.1586478,0.75,2.2871894212355874,1770762465.7580724,0.934499030133841,7,2.0795640190442404,124.77384114265442,1770762536.8812277,1770762412.1073866,1770762469.5134912,0.06550096986615905,0.06550096986615905,0.0,1.0,1.0,1770762462.7462997,C:\Users\qasim\Desktop\SocialRecognitionTask\STIMULI\smallobject\Football\Lure_076.jpg,False,1770762470.478886,True,1770762469.353782,False,1.8334765434265137,1770762468.6341057,1770762468.6341057,1770762468.6341057,False,1.0,recognition,1.0,1770762470.4778845,0.9643933773040771,stay,False,4,lure,False
True,1770762474.6146908,1770762476.4069111,0.75,1.5262241182225966,1770762476.1239722,0.7859961769271535,7,2.0795640190442404,124.77384114265442,1770762536.8812277,1770762412.1073866,1770762479.5301476,0.2140038230728465,0.2140038230728465,0.0,1.0,1.0,1770762473.612918,C:\Users\qasim\Desktop\SocialRecognitionTask\STIMULI\INSECT\Caterpillar\Lure_056.jpg,False,1770762480.8179533,True,1770762479.3348212,False,1.5709609985351562,1770762478.461782,1770762478.461782,1770762478.461782,False,1.0,recognition,1.0,1770762480.8179533,1.2878057956695557,stay,False,5,lure,False
True,1770762484.8337648,1770762487.2814012,0.75,2.360102617814011,1770762486.9319243,0.92771870666803,7,2.0795640190442404,124.77384114265442,1770762536.8812277,1770762412.1073866,1770762490.4557216,0.07228129333196998,0.07228129333196998,0.0,1.0,1.0,1770762483.8318162,C:\Users\qasim\Desktop\SocialRecognitionTask\STIMULI\VEGETABLE\Basil\Lure_084.jpg,False,1770762491.3140795,True,1770762490.3159819,False,1.705176591873169,1770762489.4222786,1770762489.4222786,1770762489.4222786,False,1.0,recognition,1.0,1770762491.3120775,0.8563559055328369,stay,False,6,lure,False
True,1770762497.0349817,1770762498.8160512,0.75,1.4643782884228147,1770762498.5182517,0.3280181282032204,7,2.0795640190442404,124.77384114265442,1770762536.8812277,1770762412.1073866,1770762500.2302253,0.3280181282032204,0.30486998005507226,0.023148148148148126,0.023148148148148126,0.0,1770762494.4851468,C:\Users\qasim\Desktop\SocialRecognitionTask\STIMULI\FRUIT\Coconut\Image_044.jpg,True,1770762500.689792,True,1770762497.0349817,True,1.4300663471221924,1770762496.3197386,1770762496.3197386,1770762496.3197386,False,0.023148148148148126,recognition,0.9768518518518519,1770762500.689792,0.459566593170166,stay,False,7,studied,False
False,1770762504.9044118,1770762506.6551313,0.75,1.4588777936231865,1770762506.384616,0.7123202547851428,7,2.0795640190442404,124.77384114265442,1770762536.8812277,1770762412.1073866,1770762509.2134805,0.7123202547851428,0.6914869214518096,0.020833333333333294,0.020833333333333294,0.0,1770762503.9031992,C:\Users\qasim\Desktop\SocialRecognitionTask\STIMULI\VEHICLE\Airplane\Image_091.jpg,True,1770762509.8006647,True,1770762509.0761414,False,1.081791639328003,1770762508.4408665,1770762508.4408665,1770762508.4408665,False,0.020833333333333294,recognition,0.9791666666666667,1770762509.8006647,0.5871841907501221,stay,False,8,studied,False
True,1770762518.2097833,1770762520.0730731,0.75,1.5517851252538146,1770762519.791728,0.7461625659153976,7,2.0795640190442404,124.77384114265442,1770762536.8812277,1770762412.1073866,1770762521.4883187,0.25383743408460235,0.25383743408460235,0.0,1.0,1.0,1770762513.049469,C:\Users\qasim\Desktop\SocialRecognitionTask\STIMULI\BIRD\Owl\Lure_027.jpg,False,1770762522.026651,True,1770762518.2092774,True,4.054680347442627,1770762516.3099618,1770762516.3099618,1770762516.3099618,False,1.0,recognition,1.0,1770762522.026651,0.5383322238922119,stay,False,9,lure,False
False,1770762527.3406973,1770762529.0245569,0.75,1.3767549023364647,1770762528.7259328,0.6042780758922273,7,2.0795640190442404,124.77384114265442,1770762536.8812277,1770762412.1073866,1770762530.4725678,0.6042780758922273,0.5927040018181532,0.011574074074074034,0.011574074074074034,0.0,1770762525.0494566,C:\Users\qasim\Desktop\SocialRecognitionTask\STIMULI\biganimal\Hippopotamus\Image_007.jpg,True,1770762530.8858716,True,1770762527.3406973,True,1.1958763599395752,1770762526.6923807,1770762526.6923807,1770762526.6923807,False,0.011574074074074034,recognition,0.9884259259259259,1770762530.884867,0.41229915618896484,stay,False,10,studied,False
False,1770762566.951363,1770762568.8562593,0.25,1.6199759698950886,1770762568.5581057,0.21956592599367952,8,1.9833337704340617,119.0000262260437,1770762662.9154544,1770762543.9154282,1770762570.3037145,0.7804340740063205,0.7804340740063205,0.0,1.0,1.0,1770762563.2259583,C:\Users\qasim\Desktop\SocialRecognitionTask\STIMULI\bigobject\Chandelier\Lure_014.jpg,False,1770762571.701213,True,1770762566.9503515,True,2.564458131790161,"1770762565.7240212,1770762565.7742255,1770762566.0663908",1770762565.7240212,1770762566.0663908,False,1.0,recognition,1.0,1770762571.701213,1.397498369216919,stay,False,1,lure,False
False,1770762575.9793386,1770762577.5077975,0.25,1.1723964579922943,1770762577.2345424,0.0027972610366445994,8,1.9833337704340617,119.0000262260437,1770762662.9154544,1770762543.9154282,1770762580.5133739,0.9972027389633554,0.9833138500744666,0.01388888888888884,0.9861111111111112,1.0,1770762574.978749,C:\Users\qasim\Desktop\SocialRecognitionTask\STIMULI\FRUIT\Banana\Lure_042.jpg,False,1770762581.4655304,True,1770762580.3667994,False,1.5037376880645752,1770762579.562591,1770762579.562591,1770762579.562591,False,0.9861111111111112,recognition,0.9861111111111112,1770762581.4655304,0.9521565437316895,stay,False,2,lure,False
False,1770762585.659242,1770762587.5770454,0.25,1.7509581657703686,1770762587.281976,0.7117173326311133,8,1.9833337704340617,119.0000262260437,1770762662.9154544,1770762543.9154282,1770762590.263936,0.7117173326311133,0.7001432585570392,0.011574074074074034,0.011574074074074034,0.0,1770762584.6567588,C:\Users\qasim\Desktop\SocialRecognitionTask\STIMULI\smallobject\Globe\Image_078.jpg,True,1770762590.9767177,True,1770762590.1169653,False,1.131725788116455,1770762589.4673748,1770762589.4673748,1770762589.4673748,False,0.011574074074074034,recognition,0.9884259259259259,1770762590.9747188,0.7107827663421631,stay,False,3,studied,False
False,1770762595.1674347,1770762597.083174,0.25,1.5632080661649457,1770762596.7817357,0.09950731599749596,8,1.9833337704340617,119.0000262260437,1770762662.9154544,1770762543.9154282,1770762599.6547024,0.900492684002504,0.900492684002504,0.0,1.0,1.0,1770762594.1665082,C:\Users\qasim\Desktop\SocialRecognitionTask\STIMULI\VEGETABLE\bokchoy\Lure_086.jpg,False,1770762600.3850577,True,1770762599.4997299,False,1.0801091194152832,1770762598.8247213,1770762598.8247213,1770762598.8247213,False,1.0,recognition,1.0,1770762600.3839767,0.7292742729187012,stay,False,4,lure,False
False,1770762604.536719,1770762606.3398817,0.25,1.5753050282310261,1770762606.0752044,0.6447822453984526,8,1.9833337704340617,119.0000262260437,1770762662.9154544,1770762543.9154282,1770762609.4388344,0.6447822453984526,0.6262637268799341,0.018518518518518524,0.018518518518518524,0.0,1770762603.5360804,C:\Users\qasim\Desktop\SocialRecognitionTask\STIMULI\INSECT\Fly\Image_057.jpg,True,1770762609.9758332,True,1770762609.3013823,False,1.603907585144043,1770762608.704903,1770762608.704903,1770762608.704903,False,0.018518518518518524,recognition,0.9814814814814815,1770762609.9748335,0.535999059677124,stay,False,5,studied,False
False,1770762615.316851,1770762616.9980898,0.25,1.3847520306724328,1770762616.719683,0.6587900946002466,8,1.9833337704340617,119.0000262260437,1770762662.9154544,1770762543.9154282,1770762618.378678,0.6587900946002466,0.6449012057113578,0.013888888888888864,0.013888888888888864,0.0,1770762612.9406922,C:\Users\qasim\Desktop\SocialRecognitionTask\STIMULI\FOOD\Cake\Image_033.jpg,True,1770762618.742567,True,1770762615.316851,True,1.2745084762573242,1770762614.7587354,1770762614.7587354,1770762614.7587354,False,0.013888888888888864,recognition,0.9861111111111112,1770762618.7415674,0.36288928985595703,stay,False,6,studied,False
False,1770762623.0891402,1770762625.3666525,0.25,2.1850121681176073,1770762625.0651217,0.07029596646153101,8,1.9833337704340617,119.0000262260437,1770762662.9154544,1770762543.9154282,1770762627.6549532,0.929704033538469,0.929704033538469,0.0,1.0,1.0,1770762622.087455,C:\Users\qasim\Desktop\SocialRecognitionTask\STIMULI\biganimal\Camel\Lure_003.jpg,False,1770762628.293553,True,1770762627.526828,False,0.8213307857513428,1770762626.733516,1770762626.733516,1770762626.733516,False,1.0,recognition,1.0,1770762628.293553,0.6385998725891113,stay,False,7,lure,False
True,1770762633.7777596,1770762635.38317,0.25,1.1907633286420563,1770762635.0820658,0.27029054830317467,8,1.9833337704340617,119.0000262260437,1770762662.9154544,1770762543.9154282,1770762636.7964597,0.27029054830317467,0.25871647422910066,0.011574074074074034,0.011574074074074034,0.0,1770762631.432483,C:\Users\qasim\Desktop\SocialRecognitionTask\STIMULI\smallanimal\Monkey\Image_068.jpg,True,1770762637.4590201,True,1770762633.7772527,True,1.249464750289917,1770762633.1762712,1770762633.1762712,1770762633.1762712,False,0.011574074074074034,recognition,0.9884259259259259,1770762637.4590201,0.6625604629516602,stay,False,8,studied,False
True,1770762644.398245,1770762646.8348603,0.25,2.3842403947599276,1770762646.4610615,0.9998497097309161,8,1.9833337704340617,119.0000262260437,1770762662.9154544,1770762543.9154282,1770762648.2044024,0.00015029026908386367,0.013738598619804976,0.01388888888888884,0.9861111111111112,1.0,1770762640.840226,C:\Users\qasim\Desktop\SocialRecognitionTask\STIMULI\BIRD\Goose\Lure_024.jpg,False,1770762649.4929745,True,1770762644.398245,True,2.45418119430542,1770762643.6261895,1770762643.6261895,1770762643.6261895,False,0.9861111111111112,recognition,0.9861111111111112,1770762649.4919643,1.2875618934631348,stay,False,9,lure,False
False,1770762655.0857105,1770762657.1268215,0.25,1.8764322613579176,1770762656.8242657,0.5940708822969081,8,1.9833337704340617,119.0000262260437,1770762662.9154544,1770762543.9154282,1770762658.5556662,0.5940708822969081,0.5848116230376488,0.009259259259259262,0.009259259259259262,0.0,1770762652.7147088,C:\Users\qasim\Desktop\SocialRecognitionTask\STIMULI\VEHICLE\Bus\Image_094.jpg,True,1770762658.9668493,True,1770762655.0852077,True,1.235086441040039,1770762654.6069171,1770762654.6069171,1770762654.6069171,False,0.009259259259259262,recognition,0.9907407407407407,1770762658.9663455,0.41067934036254883,stay,False,10,studied,False
False,1770762686.3928125,1770762688.6175134,0.25,2.1276202261035593,1770762688.30245,0.05926140158437358,9,1.9869556387265523,119.21733832359314,1770762785.4753385,1770762666.2580001,1770762691.2055495,0.9407385984156265,0.9314793391563672,0.0092592592592593,0.9907407407407407,1.0,1770762685.3914795,C:\Users\qasim\Desktop\SocialRecognitionTask\STIMULI\VEGETABLE\Asparagus\Lure_082.jpg,False,1770762691.933246,True,1770762691.06578,False,1.1480073928833008,1770762690.3322654,1770762690.3322654,1770762690.3322654,False,0.9907407407407407,recognition,0.9907407407407407,1770762691.933246,0.727696418762207,stay,False,1,lure,False
False,1770762698.4940364,1770762700.398981,0.25,1.7288172914242008,1770762700.098263,0.22937639390265402,9,1.9869556387265523,119.21733832359314,1770762785.4753385,1770762666.2580001,1770762701.8129566,0.7706236060973459,0.7359013838751238,0.03472222222222221,0.9652777777777778,1.0,1770762694.8762639,C:\Users\qasim\Desktop\SocialRecognitionTask\STIMULI\VEHICLE\Jetski\Lure_099.jpg,False,1770762702.2156045,True,1770762698.4940364,True,2.5081405639648438,1770762696.6921165,1770762696.6921165,1770762696.6921165,False,0.9652777777777778,recognition,0.9652777777777778,1770762702.2144825,0.40152597427368164,stay,False,2,lure,False
True,1770762706.5097418,1770762708.215331,0.25,1.38149238440238,1770762707.9328058,0.34049218569181666,9,1.9869556387265523,119.21733832359314,1770762785.4753385,1770762666.2580001,1770762710.5549154,0.34049218569181666,0.324288481988113,0.016203703703703692,0.016203703703703692,0.0,1770762705.5082414,C:\Users\qasim\Desktop\SocialRecognitionTask\STIMULI\bigobject\Couch\Image_016.jpg,True,1770762711.3996224,True,1770762710.4268084,False,0.8731684684753418,1770762709.7903948,1770762709.7903948,1770762709.7903948,False,0.016203703703703692,recognition,0.9837962962962963,1770762711.3996224,0.8447070121765137,stay,False,3,studied,False
False,1770762718.0039592,1770762719.9403725,0.25,1.7383115120251822,1770762719.6429977,0.1906716835063097,9,1.9869556387265523,119.21733832359314,1770762785.4753385,1770762666.2580001,1770762721.3556213,0.8093283164936903,0.8093283164936903,0.0,1.0,1.0,1770762714.515573,C:\Users\qasim\Desktop\SocialRecognitionTask\STIMULI\INSECT\Mosquito\Lure_058.jpg,False,1770762722.242325,True,1770762718.0029597,True,2.396125078201294,1770762717.3500164,1770762717.3500164,1770762717.3500164,False,1.0,recognition,1.0,1770762722.241207,0.8855855464935303,stay,False,4,lure,False
False,1770762727.5379417,1770762729.9415944,0.25,2.3045849898531383,1770762729.609162,0.737462936130657,9,1.9869556387265523,119.21733832359314,1770762785.4753385,1770762666.2580001,1770762731.3210661,0.737462936130657,0.7166296027973238,0.020833333333333294,0.020833333333333294,0.0,1770762725.3778558,C:\Users\qasim\Desktop\SocialRecognitionTask\STIMULI\smallanimal\Otter\Image_070.jpg,True,1770762732.843001,True,1770762727.5369413,True,1.0629925727844238,1770762726.993077,1770762726.993077,1770762726.993077,False,0.020833333333333294,recognition,0.9791666666666667,1770762732.843001,1.5219347476959229,stay,False,5,studied,False
False,1770762736.7864842,1770762738.6359816,0.25,1.5357341836021026,1770762738.3332427,0.5056873852546074,9,1.9869556387265523,119.21733832359314,1770762785.4753385,1770762666.2580001,1770762741.3055768,0.5056873852546074,0.4941133111805334,0.011574074074074034,0.011574074074074034,0.0,1770762735.7855263,C:\Users\qasim\Desktop\SocialRecognitionTask\STIMULI\smallobject\Balloon\Image_071.jpg,True,1770762742.0321307,True,1770762741.182383,False,1.1538307666778564,1770762740.4992046,1770762740.4992046,1770762740.4992046,False,0.011574074074074034,recognition,0.9884259259259259,1770762742.0321307,0.7265539169311523,stay,False,6,studied,False
False,1770762746.425493,1770762748.3226995,0.25,1.4747588534335234,1770762748.0244198,0.6591590443983957,9,1.9869556387265523,119.21733832359314,1770762785.4753385,1770762666.2580001,1770762751.3327296,0.6591590443983957,0.6383257110650624,0.020833333333333294,0.020833333333333294,0.0,1770762745.4243338,C:\Users\qasim\Desktop\SocialRecognitionTask\STIMULI\FOOD\Pie\Image_038.jpg,True,1770762751.982727,True,1770762751.0998652,False,1.4563276767730713,1770762750.4689167,1770762750.4689167,1770762750.4689167,False,0.020833333333333294,recognition,0.9791666666666667,1770762751.982727,0.6499974727630615,stay,False,7,studied,False
False,1770762756.4722414,1770762758.2649996,0.25,1.5103618074394927,1770762757.9692376,0.36893684379411534,9,1.9869556387265523,119.21733832359314,1770762785.4753385,1770762666.2580001,1770762761.579912,0.6310631562058846,0.6310631562058846,0.0,1.0,1.0,1770762755.470058,C:\Users\qasim\Desktop\SocialRecognitionTask\STIMULI\biganimal\Cheetah\Lure_004.jpg,False,1770762762.3693328,True,1770762761.4249878,False,1.8219819068908691,1770762760.7783055,1770762760.7783055,1770762760.7783055,False,1.0,recognition,1.0,1770762762.3693328,0.7894208431243896,stay,False,8,lure,False
False,1770762767.940085,1770762769.6310253,0.25,1.3497785367128226,1770762769.3516834,0.14405842248917278,9,1.9869556387265523,119.21733832359314,1770762785.4753385,1770762666.2580001,1770762771.046266,0.8559415775108272,0.8536267626960125,0.0023148148148147696,0.9976851851851852,1.0,1770762765.7113125,C:\Users\qasim\Desktop\SocialRecognitionTask\STIMULI\FRUIT\Watermelon\Lure_050.jpg,False,1770762771.7452505,True,1770762767.939581,True,1.1171624660491943,1770762767.2899044,1770762767.2899044,1770762767.2899044,False,0.9976851851851852,recognition,0.9976851851851852,1770762771.744239,0.6979730129241943,stay,False,9,lure,False
True,1770762777.2656107,1770762779.5198388,0.25,2.13853952897207,1770762779.2143493,0.212542994882901,9,1.9869556387265523,119.21733832359314,1770762785.4753385,1770762666.2580001,1770762780.9472253,0.212542994882901,0.19865410599401212,0.013888888888888864,0.013888888888888864,0.0,1770762775.0243177,C:\Users\qasim\Desktop\SocialRecognitionTask\STIMULI\BIRD\Peacock\Image_029.jpg,True,1770762781.3336072,True,1770762777.2646174,True,1.1057579517364502,1770762776.709134,1770762776.709134,1770762776.709134,False,0.013888888888888864,recognition,0.9861111111111112,1770762781.3336072,0.3863818645477295,stay,False,10,studied,False
False,1770762809.341151,1770762811.2888877,0.25,1.7517415909100147,1770762811.0171344,0.699295749728323,10,1.9475321213404337,116.85192728042603,1770762905.615893,1770762788.7639656,1770762813.920224,0.699295749728323,0.6830920460246193,0.016203703703703692,0.016203703703703692,0.0,1770762808.3414721,C:\Users\qasim\Desktop\SocialRecognitionTask\STIMULI\VEGETABLE\Kale\Image_088.jpg,True,1770762814.7325265,True,1770762813.7906222,False,1.1594867706298828,1770762813.1488674,1770762813.1488674,1770762813.1488674,False,0.016203703703703692,recognition,0.9837962962962963,1770762814.731526,0.8113019466400146,stay,False,1,studied,False
False,1770762818.7247427,1770762820.866704,0.25,1.932135225775705,1770762820.5653346,0.0,10,1.9475321213404337,116.85192728042603,1770762905.615893,1770762788.7639656,1770762823.3129005,1.0,1.0,0.0,1.0,1.0,1770762817.723469,C:\Users\qasim\Desktop\SocialRecognitionTask\STIMULI\FRUIT\Orange\Lure_046.jpg,False,1770762824.162991,True,1770762823.1767693,False,1.0230412483215332,1770762822.4906278,1770762822.4906278,1770762822.4906278,False,1.0,recognition,1.0,1770762824.161991,0.8490903377532959,stay,False,2,lure,False
False,1770762830.0031064,1770762831.835854,0.25,1.5267446486208267,1770762831.535881,0.08642355641015298,10,1.9475321213404337,116.85192728042603,1770762905.615893,1770762788.7639656,1770762833.248561,0.913576443589847,0.913576443589847,0.0,1.0,1.0,1770762827.1988018,C:\Users\qasim\Desktop\SocialRecognitionTask\STIMULI\BIRD\Flamingo\Lure_023.jpg,False,1770762834.2292404,True,1770762830.0020945,True,1.6992368698120117,1770762829.3602164,1770762829.3602164,1770762829.3602164,False,1.0,recognition,1.0,1770762834.2281826,0.9796216487884521,stay,False,3,lure,False
False,1770762839.6741292,1770762841.142065,0.25,1.123023476970075,1770762840.8414764,0.22150206974304965,10,1.9475321213404337,116.85192728042603,1770762905.615893,1770762788.7639656,1770762842.5386436,0.7784979302569504,0.769238670997691,0.0092592592592593,0.9907407407407407,1.0,1770762837.2103534,C:\Users\qasim\Desktop\SocialRecognitionTask\STIMULI\VEHICLE\Car\Lure_095.jpg,False,1770762843.165306,True,1770762839.6741292,True,1.3482770919799805,1770762838.7996218,1770762838.7996218,1770762838.7996218,False,0.9907407407407407,recognition,0.9907407407407407,1770762843.165306,0.6266624927520752,stay,False,4,lure,False
False,1770762848.4752412,1770762850.9828582,0.25,2.4659641440945133,1770762850.556113,0.181849735712139,10,1.9475321213404337,116.85192728042603,1770762905.615893,1770762788.7639656,1770762852.389181,0.818150264287861,0.8112058198434166,0.00694444444444442,0.9930555555555556,1.0,1770762846.2747993,C:\Users\qasim\Desktop\SocialRecognitionTask\STIMULI\biganimal\Alpaca\Lure_002.jpg,False,1770762852.8505037,True,1770762848.4747386,True,1.0820550918579102,1770762847.8847823,1770762847.8847823,1770762847.8847823,False,0.9930555555555556,recognition,0.9930555555555556,1770762852.849504,0.4603230953216553,stay,False,5,lure,False
False,1770762856.9729629,1770762859.380382,0.25,2.272992293132045,1770762859.031539,0.6033577196819332,10,1.9475321213404337,116.85192728042603,1770762905.615893,1770762788.7639656,1770762861.6549547,0.6033577196819332,0.5917836456078591,0.011574074074074034,0.011574074074074034,0.0,1770762855.9689214,C:\Users\qasim\Desktop\SocialRecognitionTask\STIMULI\bigobject\Bench\Image_012.jpg,True,1770762862.2598875,True,1770762861.5060174,False,0.7836668491363525,1770762860.8969865,1770762860.8969865,1770762860.8969865,False,0.011574074074074034,recognition,0.9884259259259259,1770762862.2589638,0.6040091514587402,stay,False,6,studied,False
True,1770762866.3786485,1770762868.6058824,0.25,2.098225758018176,1770762868.2677941,0.8913597772909748,10,1.9475321213404337,116.85192728042603,1770762905.615893,1770762788.7639656,1770762871.4220574,0.10864022270902518,0.09475133382013634,0.01388888888888884,0.9861111111111112,1.0,1770762865.377864,C:\Users\qasim\Desktop\SocialRecognitionTask\STIMULI\smallanimal\Frog\Lure_064.jpg,False,1770762871.9747412,True,1770762871.2995355,False,1.3088459968566895,1770762870.4849591,1770762870.4849591,1770762870.4849591,False,0.9861111111111112,recognition,0.9861111111111112,1770762871.9735143,0.5514569282531738,stay,False,7,lure,False
False,1770762879.7140837,1770762881.5515594,0.25,1.4924740183727097,1770762881.2484338,0.6627497822875706,10,1.9475321213404337,116.85192728042603,1770762905.615893,1770762788.7639656,1770762882.9462037,0.6627497822875706,0.31178725474946634,0.974537037037037,0.974537037037037,0.0,1770762875.3918352,C:\Users\qasim\Desktop\SocialRecognitionTask\STIMULI\INSECT\Butterfly\Image_055.jpg,True,1770762883.5876696,False,1770762879.713084,True,3.1966745853424072,1770762878.737532,1770762878.737532,1770762878.737532,False,0.974537037037037,recognition,0.02546296296296302,1770762883.586563,0.6403594017028809,stay,False,8,studied,False
True,1770762887.709008,1770762889.6399133,0.25,1.6691352674429847,1770762889.3424058,0.3919802939951139,10,1.9475321213404337,116.85192728042603,1770762905.615893,1770762788.7639656,1770762892.0307324,0.3919802939951139,0.3873506643654843,0.004629629629629602,0.004629629629629602,0.0,1770762886.7075887,C:\Users\qasim\Desktop\SocialRecognitionTask\STIMULI\smallobject\Glasses\Image_077.jpg,True,1770762892.917846,True,1770762891.899228,False,0.9431843757629395,"1770762890.9878054,1770762891.124296",1770762890.9878054,1770762891.124296,False,0.004629629629629602,recognition,0.9953703703703703,1770762892.917846,0.8871135711669922,stay,False,9,studied,False
False,1770762898.259014,1770762900.0174556,0.25,1.538013051479882,1770762899.7145872,0.6078196506041571,10,1.9475321213404337,116.85192728042603,1770762905.615893,1770762788.7639656,1770762901.4118736,0.6078196506041571,0.596245576530083,0.011574074074074034,0.011574074074074034,0.0,1770762896.04889,C:\Users\qasim\Desktop\SocialRecognitionTask\STIMULI\FOOD\Burrito\Image_032.jpg,True,1770762901.7602797,True,1770762898.259014,True,1.0996730327606201,1770762897.7850575,1770762897.7850575,1770762897.7850575,False,0.011574074074074034,recognition,0.9884259259259259,1770762901.7602797,0.3484060764312744,stay,False,10,studied,False
