ai_correct,ai_decision_time,ai_final_slider_display_time,ai_reliability,ai_rt,ai_slider_display_time,ai_slider_value,block,block_duration_minutes,block_duration_seconds,block_end_time,block_start_time,euclidean_ai_to_truth,euclidean_participant_to_ai,euclidean_participant_to_truth,final_answer,ground_truth,image_path,is_studied,outcome_trigger,participant_accuracy,participant_commit_time,participant_commit_trigger,participant_first,participant_rt,participant_slider_click_times,participant_slider_decision_onset_time,participant_slider_stop_time,participant_slider_timeout,participant_slider_value,partner_rating_complete_trigger,partner_rating_onset_trigger,partner_slider_settled_trigger,phase,points_earned,recognition_fixation_offset_trigger,recognition_fixation_onset_trigger,recognition_image_offset_trigger,recognition_image_onset_trigger,switch_commit_time,switch_rt,switch_stay_decision,switch_stay_response_trigger,switch_stay_trigger,switch_timeout,trial,trial_type,used_ai_answer
,,,0.5,,,,0,,,,,,,0.031249999999999972,0.031249999999999972,0.0,C:\Users\qasim\Desktop\SocialRecognitionTask\PLACEHOLDERS\IMAGE_1.png,True,1771260648.1173594,True,1771260648.094492,1771260648.0745037,True,2.5944149494171143,1771260647.158313,1771260647.158313,1771260647.158313,False,0.031249999999999972,,,,recognition,0.96875,1771260643.7980547,1771260643.2772274,1771260645.3516831,1771260643.8376157,,,,,,,1,studied,False
True,1771260660.9505966,1771260654.911373,0.5,2.0,1771260654.6071591,0.0,0,,,,,0.0,0.03776041666666667,0.03776041666666667,0.03776041666666667,0.0,C:\Users\qasim\Desktop\SocialRecognitionTask\PLACEHOLDERS\IMAGE_2.png,True,1771260659.4268022,True,1771260659.4057012,1771260659.3865979,True,3.200923204421997,1771260658.696522,1771260658.696522,1771260658.696522,False,0.03776041666666667,1771260655.6002975,1771260652.9154184,1771260654.618168,recognition,0.9622395833333334,1771260650.184318,1771260649.67015,1771260651.2473688,1771260650.224514,,,,,,,2,studied,False
False,1771260677.275075,1771260669.8779576,0.5,2.0,1771260669.5702775,0.4,0,,,,,0.6,0.5796006944444445,0.02039930555555547,0.9796006944444445,1.0,C:\Users\qasim\Desktop\SocialRecognitionTask\PLACEHOLDERS\IMAGE_3.png,False,1771260675.2587523,True,1771260667.7833257,1771260667.767546,True,2.9970760345458984,1771260666.8427532,1771260666.8427532,1771260666.8427532,False,0.9796006944444445,1771260670.5798392,1771260667.8620584,1771260669.5832748,recognition,0.9796006944444445,1771260663.594066,1771260663.068178,1771260664.669412,1771260663.6547434,1771260675.1924908,3.883659839630127,stay,1771260675.1653235,1771260671.3021429,False,3,studied,False
True,1771260718.4846506,1771260720.260663,0.75,1.7269431749337585,1771260719.9997575,0.22967809291973684,1,2.6213709155718488,157.2822549343109,1771260853.4758942,1771260696.1936393,0.22967809291973684,0.20493850958640353,0.02473958333333333,0.02473958333333333,0.0,C:\Users\qasim\Desktop\SocialRecognitionTask\STIMULI\VEGETABLE\Kale\Image_088.jpg,True,1771260725.7038958,True,1771260723.969491,1771260723.9424703,False,2.4941632747650146,1771260723.0019164,1771260723.0019164,1771260723.0019164,False,0.02473958333333333,1771260720.900661,1771260718.538144,1771260720.0027573,recognition,0.9752604166666666,1771260717.4232981,1771260716.8988283,1771260718.4704156,1771260717.4512293,1771260725.6343157,1.4648168087005615,stay,1771260725.60695,1771260724.1466503,False,1,studied,False
True,1771260732.3536117,1771260734.3877957,0.75,1.8359043826834454,1771260734.0800223,0.24856754451558377,1,2.6213709155718488,157.2822549343109,1771260853.4758942,1771260696.1936393,0.24856754451558377,0.2346786556266949,0.013888888888888864,0.013888888888888864,0.0,C:\Users\qasim\Desktop\SocialRecognitionTask\STIMULI\FOOD\Bagel\Image_031.jpg,True,1771260736.8122287,True,1771260732.3536117,1771260732.3313951,True,1.9224724769592285,1771260731.6959572,1771260731.6959572,1771260731.6959572,False,0.013888888888888864,1771260735.0985327,1771260732.4650517,1771260734.0930305,recognition,0.9861111111111112,1771260729.1958694,1771260728.6721697,1771260730.2519941,1771260729.2308402,1771260736.7029374,0.8951458930969238,stay,1771260736.6754575,1771260735.7920423,False,2,studied,False
True,1771260741.327351,1771260744.38817,0.75,2.9654529861005563,1771260743.6987658,0.8314529316226507,1,2.6213709155718488,157.2822549343109,1771260853.4758942,1771260696.1936393,0.16854706837734934,0.1459776239329048,0.02256944444444453,0.9774305555555555,1.0,C:\Users\qasim\Desktop\SocialRecognitionTask\STIMULI\smallanimal\Frog\Lure_064.jpg,False,1771260750.0834596,True,1771260748.3507957,1771260748.3260255,False,2.6528990268707275,"1771260747.524107,1771260747.756855",1771260747.524107,1771260747.756855,False,0.9774305555555555,1771260745.081103,1771260741.429247,1771260743.7027655,recognition,0.9774305555555555,1771260740.2573087,1771260739.7324936,1771260741.3079,1771260740.285865,1771260750.0147722,1.4696104526519775,stay,1771260749.9921157,1771260748.5276659,False,3,lure,False
True,1771260754.2774343,1771260755.8141012,0.75,1.2257317395068246,1771260755.5040524,0.7864509328420405,1,2.6213709155718488,157.2822549343109,1771260853.4758942,1771260696.1936393,0.21354906715795952,0.20400045604684847,0.00954861111111105,0.990451388888889,1.0,C:\Users\qasim\Desktop\SocialRecognitionTask\STIMULI\FRUIT\Peach\Lure_047.jpg,False,1771260760.1134033,True,1771260758.9943626,1771260758.9749532,False,1.8927855491638184,1771260758.4290345,1771260758.4290345,1771260758.4290345,False,0.990451388888889,1771260756.522231,1771260754.3865218,1771260755.51757,recognition,0.990451388888889,1771260753.2032251,1771260752.6892867,1771260754.2583938,1771260753.2338483,1771260760.0436623,0.8680660724639893,stay,1771260760.0222154,1771260759.1524127,False,4,lure,False
True,1771260764.276974,1771260765.933543,0.75,1.2143352294817686,1771260765.6190362,0.16265457419460008,1,2.6213709155718488,157.2822549343109,1771260853.4758942,1771260696.1936393,0.16265457419460008,0.021484964602770468,0.14116960959182961,0.14116960959182961,0.0,C:\Users\qasim\Desktop\SocialRecognitionTask\STIMULI\biganimal\Elephant\Image_005.jpg,True,1771260784.7275045,True,1771260774.2621422,,False,7.007668495178223,,,,True,0.14116960959182961,1771260766.6448507,1771260764.3989253,1771260765.6310422,recognition,0.8588303904081704,1771260763.20682,1771260762.6957476,1771260764.2578585,1771260763.2343087,1771260783.065126,7.0,stay,,1771260776.0398111,True,5,studied,False
True,1771260792.9528146,1771260794.4501898,0.75,1.1630268289934829,1771260794.141327,0.03275119371472143,1,2.6213709155718488,157.2822549343109,1771260853.4758942,1771260696.1936393,0.03275119371472143,0.025372721492499212,0.007378472222222219,0.007378472222222219,0.0,C:\Users\qasim\Desktop\SocialRecognitionTask\STIMULI\smallobject\Basket\Image_072.jpg,True,1771260797.1652255,True,1771260792.9508245,1771260792.9275517,True,3.5727765560150146,1771260792.401994,1771260792.401994,1771260792.401994,False,0.007378472222222219,1771260795.1712098,1771260793.0474463,1771260794.1552453,recognition,0.9926215277777778,1771260788.1736295,1771260787.650321,1771260789.2236836,1771260788.2046916,1771260797.0706525,1.1936335563659668,stay,1771260797.0423467,1771260795.8586261,False,6,studied,False
False,1771260806.0930848,1771260808.0279868,0.75,1.6916419948964159,1771260807.7277582,0.4521102422145583,1,2.6213709155718488,157.2822549343109,1771260853.4758942,1771260696.1936393,0.5478897577854417,0.5296605911187751,0.01822916666666663,0.4521102422145583,1.0,C:\Users\qasim\Desktop\SocialRecognitionTask\STIMULI\bigobject\filingcabinet\Lure_017.jpg,False,1771260811.5880387,False,1771260806.0920844,1771260806.075435,True,4.377926826477051,1771260804.9633317,1771260804.9633317,1771260804.9633317,False,0.9817708333333334,1771260808.73802,1771260806.193912,1771260807.7359428,recognition,0.4521102422145583,1771260800.5412607,1771260800.020233,1771260801.599114,1771260800.5764937,1771260811.5142922,2.0464370250701904,switch,1771260811.4910777,1771260809.446593,False,7,lure,True
False,1771260816.1279094,1771260818.7598372,0.75,2.512199881659272,1771260818.3183105,0.40172885705686967,1,2.6213709155718488,157.2822549343109,1771260853.4758942,1771260696.1936393,0.5982711429431303,0.5778718373875749,0.02039930555555547,0.9796006944444445,1.0,C:\Users\qasim\Desktop\SocialRecognitionTask\STIMULI\VEHICLE\Bike\Lure_092.jpg,False,1771260823.5710957,True,1771260822.0347757,1771260822.0065958,False,1.9565775394439697,1771260821.2431233,1771260821.2431233,1771260821.2431233,False,0.9796006944444445,1771260819.46635,1771260816.2554371,1771260818.3298264,recognition,0.9796006944444445,1771260815.0597522,1771260814.5376332,1771260816.1089752,1771260815.0881019,1771260823.4837432,1.2462985515594482,stay,1771260823.459501,1771260822.2197847,False,8,lure,False
True,1771260829.9046469,1771260831.7476444,0.75,1.6347584127588488,1771260831.4585936,0.022911345771143954,1,2.6213709155718488,157.2822549343109,1771260853.4758942,1771260696.1936393,0.022911345771143954,0.0018282375621893748,0.02473958333333333,0.02473958333333333,0.0,C:\Users\qasim\Desktop\SocialRecognitionTask\STIMULI\BIRD\Goose\Image_024.jpg,True,1771260834.1680841,True,1771260829.9046469,1771260829.8812606,True,1.876755714416504,1771260829.0412576,1771260829.0412576,1771260829.0412576,False,0.02473958333333333,1771260832.4379897,1771260830.003957,1771260831.4716046,recognition,0.9752604166666666,1771260826.8388073,1771260826.3263912,1771260827.8918166,1771260826.8680296,1771260834.0829294,0.9336023330688477,stay,1771260834.0633733,1771260833.1315136,False,9,studied,False
True,1771260842.3813834,1771260845.340341,0.75,2.8551296826377572,1771260844.803091,0.9964738668586686,1,2.6213709155718488,157.2822549343109,1771260853.4758942,1771260696.1936393,0.0035261331413314334,0.038574561303112986,0.04210069444444442,0.9964738668586686,1.0,C:\Users\qasim\Desktop\SocialRecognitionTask\STIMULI\INSECT\Caterpillar\Lure_056.jpg,False,1771260848.2421422,True,1771260842.3803675,1771260842.3592622,True,3.657777786254883,1771260841.7039685,1771260841.7039685,1771260841.7039685,False,0.9578993055555556,1771260846.051431,1771260842.486516,1771260844.8155475,recognition,0.9964738668586686,1771260837.5554519,1771260837.041005,1771260838.607437,1771260837.5838969,1771260848.1151361,1.3657400608062744,switch,1771260848.0879734,1771260846.7323396,False,10,lure,True
True,1771260879.9718876,1771260881.3548899,0.75,0.9680997246009455,1771260881.0555267,0.8615932810514667,2,2.336991274356842,140.21947646141052,1771260996.8252757,1771260856.6057992,0.1384067189485333,0.1028164411707555,0.03559027777777779,0.9644097222222222,1.0,C:\Users\qasim\Desktop\SocialRecognitionTask\STIMULI\smallanimal\Dog\Lure_063.jpg,False,1771260883.9662473,True,1771260879.9708836,1771260879.9519305,True,1.7859184741973877,1771260879.361514,1771260879.361514,1771260879.361514,False,0.9644097222222222,1771260882.071576,1771260880.071651,1771260881.0655494,recognition,0.9644097222222222,1771260876.9831204,1771260876.4605355,1771260878.0338752,1771260877.0118718,1771260883.9230611,1.1621229648590088,stay,1771260883.8940082,1771260882.7448971,False,1,lure,False
False,1771260891.341856,1771260893.3508875,0.75,1.8769940784601806,1771260893.0412445,0.5302666865261264,2,2.336991274356842,140.21947646141052,1771260996.8252757,1771260856.6057992,0.5302666865261264,0.4946764087483487,0.035590277777777735,0.035590277777777735,0.0,C:\Users\qasim\Desktop\SocialRecognitionTask\STIMULI\FOOD\Soup\Image_040.jpg,True,1771260896.3755999,True,1771260891.341856,1771260891.3170369,True,2.918412446975708,1771260890.7784884,1771260890.7784884,1771260890.7784884,False,0.035590277777777735,1771260894.049677,1771260891.4412534,1771260893.0542407,recognition,0.9644097222222223,1771260887.2235022,1771260886.710104,1771260888.274309,1771260887.2505252,1771260896.3003664,1.5416789054870605,stay,1771260896.2855022,1771260894.7360654,False,2,studied,False
True,1771260900.834256,1771260902.5074637,0.75,1.4530281417283253,1771260902.1950684,0.9136878024919323,2,2.336991274356842,140.21947646141052,1771260996.8252757,1771260856.6057992,0.08631219750806773,0.08110386417473436,0.00520833333333337,0.9947916666666666,1.0,C:\Users\qasim\Desktop\SocialRecognitionTask\STIMULI\BIRD\Hummingbird\Lure_026.jpg,False,1771260908.0563908,True,1771260906.6725013,1771260906.648024,False,2.810793399810791,1771260905.995115,1771260905.995115,1771260905.995115,False,0.9947916666666666,1771260903.221201,1771260900.9024231,1771260902.2080822,recognition,0.9947916666666666,1771260899.7640507,1771260899.2491944,1771260900.816087,1771260899.792087,1771260907.9934773,1.1176128387451172,stay,1771260907.974379,1771260906.8525047,False,3,lure,False
True,1771260912.2784886,1771260914.525857,0.75,2.126554816819071,1771260914.2282782,0.7902897262898482,2,2.336991274356842,140.21947646141052,1771260996.8252757,1771260856.6057992,0.20971027371015183,0.1914811070434852,0.01822916666666663,0.9817708333333334,1.0,C:\Users\qasim\Desktop\SocialRecognitionTask\STIMULI\VEHICLE\Bus\Lure_094.jpg,False,1771260919.968706,True,1771260919.09566,1771260919.0771072,False,3.2495388984680176,1771260918.471266,1771260918.471266,1771260918.471266,False,0.9817708333333334,1771260915.2376425,1771260912.3825192,1771260914.2423542,recognition,0.9817708333333334,1771260911.2096298,1771260910.681608,1771260912.259527,1771260911.234144,1771260919.9218943,0.6615397930145264,stay,1771260919.9021807,1771260919.2348359,False,4,lure,False
True,1771260924.2684,1771260925.7987888,0.75,1.1128158037228981,1771260925.4924078,0.8306603707695253,2,2.336991274356842,140.21947646141052,1771260996.8252757,1771260856.6057992,0.16933962923047474,0.15328060145269695,0.01605902777777779,0.9839409722222222,1.0,C:\Users\qasim\Desktop\SocialRecognitionTask\STIMULI\FRUIT\Blueberry\Lure_043.jpg,False,1771260930.3408663,True,1771260929.3749075,1771260929.358488,False,2.2246506214141846,1771260928.7544167,1771260928.7544167,1771260928.7544167,False,0.9839409722222222,1771260926.5109332,1771260924.3893387,1771260925.504407,recognition,0.9839409722222222,1771260923.1992946,1771260922.68842,1771260924.248683,1771260923.2276106,1771260930.2938187,0.7849416732788086,stay,1771260930.2760744,1771260929.485845,False,5,lure,False
True,1771260934.6119952,1771260936.473049,0.75,1.592042207668632,1771260936.1713135,0.21220468189326916,2,2.336991274356842,140.21947646141052,1771260996.8252757,1771260856.6057992,0.21220468189326916,0.20265607078215805,0.009548611111111101,0.009548611111111101,0.0,C:\Users\qasim\Desktop\SocialRecognitionTask\STIMULI\biganimal\Cheetah\Image_004.jpg,True,1771260940.5750859,True,1771260939.5290365,1771260939.5091617,False,1.685791015625,1771260938.6624222,1771260938.6624222,1771260938.6624222,False,0.009548611111111101,1771260937.2032886,1771260934.7090652,1771260936.1804183,recognition,0.990451388888889,1771260933.5385947,1771260933.0156767,1771260934.5921571,1771260933.5681014,1771260940.5005996,0.7595949172973633,stay,1771260940.475858,1771260939.7183216,False,6,studied,False
True,1771260947.6190083,1771260950.5837061,0.75,2.89293603959191,1771260950.0108767,0.06277181125209658,2,2.336991274356842,140.21947646141052,1771260996.8252757,1771260856.6057992,0.06277181125209658,0.022841255696541024,0.03993055555555555,0.03993055555555555,0.0,C:\Users\qasim\Desktop\SocialRecognitionTask\STIMULI\smallobject\Lamp\Image_080.jpg,True,1771260953.169601,True,1771260947.6180084,1771260947.6039515,True,2.597060203552246,1771260946.889067,1771260946.889067,1771260946.889067,False,0.03993055555555555,1771260951.286682,1771260947.6984828,1771260950.0191722,recognition,0.9600694444444444,1771260943.8765576,1771260943.356613,1771260944.9284444,1771260943.9111924,1771260953.0882826,1.0841319561004639,stay,1771260953.0585887,1771260951.9830875,False,7,studied,False
True,1771260960.5417726,1771260962.3235905,0.75,1.5638630564928562,1771260962.0186281,0.02820746203599858,2,2.336991274356842,140.21947646141052,1771260996.8252757,1771260856.6057992,0.02820746203599858,0.01172309351955697,0.03993055555555555,0.03993055555555555,0.0,C:\Users\qasim\Desktop\SocialRecognitionTask\STIMULI\VEGETABLE\Avocado\Image_083.jpg,True,1771260964.4793446,True,1771260960.5417726,1771260960.524377,True,3.1694839000701904,1771260959.353192,1771260959.353192,1771260959.353192,False,0.03993055555555555,1771260963.0352788,1771260960.6117122,1771260962.0337715,recognition,0.9600694444444444,1771260956.1734283,1771260955.6578174,1771260957.2240927,1771260956.2000937,1771260964.392014,0.6454598903656006,stay,1771260964.3708353,1771260963.7286425,False,8,studied,False
True,1771260972.4601908,1771260974.7833226,0.75,2.220324495436079,1771260974.4485197,0.8919743944430176,2,2.336991274356842,140.21947646141052,1771260996.8252757,1771260856.6057992,0.10802560555698237,0.09196657777920458,0.01605902777777779,0.9839409722222222,1.0,C:\Users\qasim\Desktop\SocialRecognitionTask\STIMULI\INSECT\Fly\Lure_057.jpg,False,1771260977.419562,True,1771260972.4591713,1771260972.442013,True,3.2862391471862793,1771260971.0614045,1771260971.0614045,1771260971.0614045,False,0.9839409722222222,1771260975.4846313,1771260972.5674417,1771260974.4608777,recognition,0.9839409722222222,1771260967.9587772,1771260967.4386802,1771260969.0091956,1771260967.9863222,1771260977.3679316,1.1784605979919434,stay,1771260977.3454328,1771260976.166512,False,9,lure,False
False,1771260981.4915414,1771260983.0264394,0.75,1.2186705232006014,1771260982.7355385,0.5332337818732314,2,2.336991274356842,140.21947646141052,1771260996.8252757,1771260856.6057992,0.5332337818732314,0.36607177368232413,0.8993055555555556,0.8993055555555556,0.0,C:\Users\qasim\Desktop\SocialRecognitionTask\STIMULI\bigobject\Barrel\Image_011.jpg,True,1771260991.984671,False,1771260989.4503157,1771260989.4250855,False,5.078790903091431,1771260988.2740698,1771260988.2740698,1771260988.2740698,False,0.8993055555555556,1771260983.750672,1771260981.6122124,1771260982.7437725,recognition,0.10069444444444442,1771260980.4303918,1771260979.9184115,1771260981.4829993,1771260980.4587052,1771260991.898837,2.256834030151367,stay,1771260991.8704383,1771260989.6203141,False,10,studied,False
False,1771261022.6877735,1771261024.3442903,0.75,1.31029999720451,1771261024.0420575,0.5615376720972907,3,2.3001842697461448,138.01105618476868,1771261136.9385555,1771260998.9274993,0.5615376720972907,0.5498189220972907,0.011718749999999983,0.5615376720972907,0.0,C:\Users\qasim\Desktop\SocialRecognitionTask\STIMULI\VEHICLE\Boat\Image_093.jpg,True,1771261026.5905037,False,1771261022.6867743,1771261022.6626463,True,1.739283800125122,1771261022.0456905,1771261022.0456905,1771261022.0456905,False,0.011718749999999983,1771261025.0604599,1771261022.7922611,1771261024.0540566,recognition,0.43846232790270934,1771261019.7575626,1771261019.2268596,1771261020.8088138,1771261019.785023,1771261026.5096297,0.7555396556854248,switch,1771261026.4858012,1771261025.7379773,False,1,studied,True
True,1771261030.8678331,1771261033.136076,0.75,2.1869718099188176,1771261032.7903442,0.9257887916248597,3,2.3001842697461448,138.01105618476868,1771261136.9385555,1771260998.9274993,0.07421120837514028,0.01129226384708193,0.08550347222222221,0.9257887916248597,1.0,C:\Users\qasim\Desktop\SocialRecognitionTask\STIMULI\smallobject\Camera\Lure_074.jpg,False,1771261037.3457892,True,1771261036.19296,1771261036.173007,False,1.7572689056396484,1771261035.4338825,1771261035.4338825,1771261035.4338825,False,0.9144965277777778,1771261033.8327582,1771261030.9548175,1771261032.8035061,recognition,0.9257887916248597,1771261029.7957807,1771261029.2767885,1771261030.8489048,1771261029.8283656,1771261037.2594728,0.8752346038818359,switch,1771261037.2347693,1771261036.3572824,False,2,lure,True
False,1771261041.5439177,1771261043.4898643,0.75,1.7226221639679336,1771261043.1869845,0.4425461755287565,3,2.3001842697461448,138.01105618476868,1771261136.9385555,1771260998.9274993,0.5574538244712435,0.5435649355823546,0.01388888888888884,0.9861111111111112,1.0,C:\Users\qasim\Desktop\SocialRecognitionTask\STIMULI\FRUIT\Pineapple\Lure_048.jpg,False,1771261048.6750038,True,1771261047.034058,1771261047.0075924,False,2.208238363265991,1771261046.255986,1771261046.255986,1771261046.255986,False,0.9861111111111112,1771261044.2044091,1771261041.6570475,1771261043.1979928,recognition,0.9861111111111112,1771261040.4782522,1771261039.9551058,1771261041.525202,1771261040.500334,1771261048.6061194,1.4058349132537842,stay,1771261048.5836236,1771261047.1738706,False,3,lure,False
True,1771261056.7497044,1771261058.464923,0.75,1.4227088932472423,1771261058.1684687,0.23005391816908793,3,2.3001842697461448,138.01105618476868,1771261136.9385555,1771260998.9274993,0.23005391816908793,0.19012336261353238,0.03993055555555555,0.03993055555555555,0.0,C:\Users\qasim\Desktop\SocialRecognitionTask\STIMULI\BIRD\Peacock\Image_029.jpg,True,1771261061.0881639,True,1771261056.748705,1771261056.7217917,True,3.7910730838775635,1771261054.1305306,1771261054.1305306,1771261054.1305306,False,0.03993055555555555,1771261059.1916785,1771261056.8713996,1771261058.1810915,recognition,0.9600694444444444,1771261051.7732167,1771261051.255875,1771261052.8389418,1771261051.8180141,1771261061.0140448,1.123450517654419,stay,1771261060.9893308,1771261059.8731964,False,4,studied,False
True,1771261065.174912,1771261067.2905293,0.75,1.8390563801458015,1771261066.9877605,0.9420077230982479,3,2.3001842697461448,138.01105618476868,1771261136.9385555,1771260998.9274993,0.05799227690175213,0.9367993897649145,0.9947916666666666,0.005208333333333338,1.0,C:\Users\qasim\Desktop\SocialRecognitionTask\STIMULI\smallanimal\Groundhog\Lure_065.jpg,False,1771261073.6305957,False,1771261072.638227,1771261072.6168478,False,4.02553129196167,"1771261071.7610793,1771261071.7785716",1771261071.7610793,1771261071.7785716,False,0.005208333333333338,1771261067.993014,1771261065.3099859,1771261067.0017695,recognition,0.00520833333333337,1771261064.1061947,1771261063.5857756,1771261065.1572835,1771261064.1375911,1771261073.5409167,0.7083148956298828,stay,1771261073.519818,1771261072.8131654,False,5,lure,False
True,1771261079.9726903,1771261081.6238332,0.75,1.313645045007895,1771261081.3244598,0.8728582736245051,3,2.3001842697461448,138.01105618476868,1771261136.9385555,1771260998.9274993,0.12714172637549492,0.08721117081993934,0.03993055555555558,0.8728582736245051,1.0,C:\Users\qasim\Desktop\SocialRecognitionTask\STIMULI\INSECT\Bee\Lure_052.jpg,False,1771261084.4650443,True,1771261079.9716854,1771261079.9509795,True,2.1218338012695312,1771261079.3619704,1771261079.3619704,1771261079.3619704,False,0.9600694444444444,1771261082.3345237,1771261080.0922642,1771261081.333384,recognition,0.8728582736245051,1771261076.6638975,1771261076.1504893,1771261077.73137,1771261076.7091768,1771261084.3930542,1.3493165969848633,switch,1771261084.3687692,1771261083.0251691,False,6,lure,True
True,1771261088.485498,1771261090.2388453,0.75,1.6743445931969767,1771261089.9696875,0.14376401070479136,3,2.3001842697461448,138.01105618476868,1771261136.9385555,1771260998.9274993,0.14376401070479136,0.562399183739653,0.7061631944444444,0.7061631944444444,0.0,C:\Users\qasim\Desktop\SocialRecognitionTask\STIMULI\bigobject\Chair\Image_013.jpg,True,1771261094.3711898,False,1771261093.3684227,1771261093.341824,False,1.7936148643493652,"1771261092.7027273,1771261092.978993",1771261092.7027273,1771261092.978993,False,0.7061631944444444,1771261090.948221,1771261088.5537026,1771261089.973265,recognition,0.2938368055555556,1771261087.4234653,1771261086.9035316,1771261088.4692206,1771261087.4517696,1771261094.294879,0.6919302940368652,stay,1771261094.2707658,1771261093.5774174,False,7,studied,False
True,1771261107.2823598,1771261109.0895393,0.75,1.5676012558721035,1771261108.7925644,0.12718896525821535,3,2.3001842697461448,138.01105618476868,1771261136.9385555,1771260998.9274993,0.12718896525821535,0.75266305026006,0.8798520155182753,0.8798520155182753,0.0,C:\Users\qasim\Desktop\SocialRecognitionTask\STIMULI\VEGETABLE\Asparagus\Image_082.jpg,True,1771261111.8799372,False,1771261105.6743786,,True,7.00652551651001,,,,True,0.8798520155182753,1771261109.7846272,1771261107.3976307,1771261108.8008046,recognition,0.1201479844817247,1771261097.455865,1771261096.939453,1771261098.506927,1771261097.4839952,1771261111.8221812,1.3412489891052246,stay,1771261111.7719448,1771261110.4612617,False,8,studied,False
True,1771261117.0339592,1771261118.3357418,0.75,0.8318555556458458,1771261118.0173042,0.10773037236315838,3,2.3001842697461448,138.01105618476868,1771261136.9385555,1771260998.9274993,0.10773037236315838,0.678727960970175,0.7864583333333334,0.10773037236315838,0.0,C:\Users\qasim\Desktop\SocialRecognitionTask\STIMULI\FOOD\icecream\Image_036.jpg,True,1771261121.1115868,True,1771261117.0319512,1771261117.0109527,True,0.697176456451416,1771261117.0055435,1771261117.0055435,1771261117.0055435,False,0.7864583333333334,1771261119.046193,1771261117.1108305,1771261118.032311,recognition,0.8922696276368416,1771261115.1485069,1771261114.6231632,1771261116.198979,1771261115.1760716,1771261121.0338693,1.2795264720916748,switch,1771261121.009428,1771261119.7334125,False,9,studied,True
True,1771261125.4428294,1771261127.136985,0.75,1.6081856873821652,1771261126.8737774,0.8321061291378442,3,2.3001842697461448,138.01105618476868,1771261136.9385555,1771260998.9274993,0.1678938708621558,0.08905057358228863,0.2569444444444444,0.8321061291378442,1.0,C:\Users\qasim\Desktop\SocialRecognitionTask\STIMULI\biganimal\Giraffe\Lure_006.jpg,False,1771261132.022575,True,1771261130.9251585,1771261130.902745,False,2.5912201404571533,1771261130.2704647,1771261130.2704647,1771261130.2704647,False,0.7430555555555556,1771261127.7719069,1771261125.5115948,1771261126.878772,recognition,0.8321061291378442,1771261124.3817334,1771261123.868445,1771261125.42782,1771261124.4094324,1771261131.9578748,0.8409628868103027,switch,1771261131.9362872,1771261131.0985303,False,10,lure,True
True,1771261164.5672672,1771261166.7328255,0.35,1.9621011340376582,1771261166.421717,0.006602843958821408,4,2.0436002532641093,122.61601519584656,1771261265.2423182,1771261142.626303,0.006602843958821408,0.031157572707845263,0.03776041666666667,0.03776041666666667,0.0,C:\Users\qasim\Desktop\SocialRecognitionTask\STIMULI\VEHICLE\Car\Image_095.jpg,True,1771261170.7951155,True,1771261169.9304426,1771261169.9048862,False,1.8668437004089355,1771261169.344167,1771261169.344167,1771261169.344167,False,0.03776041666666667,1771261167.4290917,1771261164.7178771,1771261166.4357908,recognition,0.9622395833333334,1771261163.493809,1771261162.9678104,1771261164.5490386,1771261163.5248356,1771261170.6903923,0.5546255111694336,stay,1771261170.6667068,1771261170.1074529,False,1,studied,False
False,1771261176.8683882,1771261178.9273057,0.35,1.8017868408904647,1771261178.6209075,0.04826374804375369,4,2.0436002532641093,122.61601519584656,1771261265.2423182,1771261142.626303,0.9517362519562463,0.9508681964006909,0.0008680555555554692,0.04826374804375369,1.0,C:\Users\qasim\Desktop\SocialRecognitionTask\STIMULI\bigobject\Couch\Lure_016.jpg,False,1771261181.685323,False,1771261176.867389,1771261176.8480399,True,1.8757171630859375,1771261176.3352442,1771261176.3352442,1771261176.3352442,False,0.9991319444444445,1771261179.6384394,1771261177.015465,1771261178.6351364,recognition,0.04826374804375366,1771261173.7975543,1771261173.274085,1771261174.849942,1771261173.826288,1771261181.6006858,1.2582426071166992,switch,1771261181.5741563,1771261180.326426,False,2,lure,True
False,1771261187.8250396,1771261190.3059704,0.35,2.4009586250695465,1771261189.8922637,0.22647610759433498,4,2.0436002532641093,122.61601519584656,1771261265.2423182,1771261142.626303,0.773523892405665,0.7314231979612206,0.04210069444444442,0.9578993055555556,1.0,C:\Users\qasim\Desktop\SocialRecognitionTask\STIMULI\FOOD\Cake\Lure_033.jpg,False,1771261192.7178826,True,1771261187.8240411,1771261187.8022294,True,1.4170312881469727,1771261187.3298032,1771261187.3298032,1771261187.3298032,False,0.9578993055555556,1771261190.997493,1771261187.9097972,1771261189.9045625,recognition,0.9578993055555556,1771261185.203488,1771261184.6794412,1771261186.2582164,1771261185.234616,1771261192.6338775,0.9285986423492432,stay,1771261192.6086617,1771261191.682224,False,3,lure,False
True,1771261196.8594885,1771261199.544245,0.35,2.562491822146318,1771261199.1311421,0.8239765541370543,4,2.0436002532641093,122.61601519584656,1771261265.2423182,1771261142.626303,0.17602344586294572,0.6451571096926099,0.8211805555555556,0.17881944444444442,1.0,C:\Users\qasim\Desktop\SocialRecognitionTask\STIMULI\VEGETABLE\Arugula\Lure_081.jpg,False,1771261202.1496594,False,1771261201.6345346,1771261201.6083493,False,0.7943334579467773,1771261201.6012547,1771261201.6012547,1771261201.6012547,False,0.17881944444444442,1771261200.2256868,1771261196.9894922,1771261199.143208,recognition,0.17881944444444442,1771261195.7900717,1771261195.2661438,1771261196.8407674,1771261195.8196912,1771261202.0949533,0.2454209327697754,stay,1771261202.076231,1771261201.8331356,False,4,lure,False
False,1771261209.2945373,1771261211.286352,0.35,1.7076502281022603,1771261210.9814842,0.7962447304528526,4,2.0436002532641093,122.61601519584656,1771261265.2423182,1771261142.626303,0.7962447304528526,0.07272042489729702,0.7235243055555556,0.7962447304528526,0.0,C:\Users\qasim\Desktop\SocialRecognitionTask\STIMULI\FRUIT\Apple\Image_041.jpg,True,1771261213.337266,False,1771261209.2935047,1771261209.2764122,True,2.682823657989502,1771261208.003255,1771261208.003255,1771261208.003255,False,0.7235243055555556,1771261212.0003655,1771261209.4300394,1771261210.994675,recognition,0.2037552695471474,1771261205.4321864,1771261204.9072022,1771261206.482337,1771261205.4605668,1771261213.2976425,0.5876550674438477,switch,1771261213.2812848,1771261212.6900501,False,5,studied,True
True,1771261217.7993836,1771261220.181259,0.35,2.277124470726508,1771261219.7997992,0.10421074431797187,4,2.0436002532641093,122.61601519584656,1771261265.2423182,1771261142.626303,0.10421074431797187,0.018185089015361464,0.12239583333333333,0.12239583333333333,0.0,C:\Users\qasim\Desktop\SocialRecognitionTask\STIMULI\smallobject\Key\Image_079.jpg,True,1771261223.361708,True,1771261222.2110894,1771261222.1828027,False,0.7415869235992432,1771261222.175804,1771261222.175804,1771261222.175804,False,0.12239583333333333,1771261220.8802667,1771261217.911457,1771261219.812163,recognition,0.8776041666666666,1771261216.7226627,1771261216.2013032,1771261217.7824924,1771261216.7601042,1771261223.3122318,0.93804931640625,stay,1771261223.293963,1771261222.3595145,False,6,studied,False
False,1771261229.127635,1771261230.5612624,0.35,1.0643986254039899,1771261230.2598243,0.21610909236600787,4,2.0436002532641093,122.61601519584656,1771261265.2423182,1771261142.626303,0.7838909076339922,0.4618422965228811,0.32204861111111105,0.677951388888889,1.0,C:\Users\qasim\Desktop\SocialRecognitionTask\STIMULI\biganimal\Alpaca\Lure_002.jpg,False,1771261232.5103996,True,1771261229.126635,1771261229.1026614,True,1.456838607788086,1771261228.6371143,1771261228.6371143,1771261228.6371143,False,0.677951388888889,1771261231.264565,1771261229.2132704,1771261230.2702312,recognition,0.677951388888889,1771261226.506805,1771261225.9917004,1771261227.5550454,1771261226.5340755,1771261232.4152336,0.4445939064025879,stay,1771261232.3858056,1771261231.9497604,False,7,lure,False
False,1771261238.2027893,1771261240.111324,0.35,1.7288508696940652,1771261239.8261242,0.0050148539574374484,4,2.0436002532641093,122.61601519584656,1771261265.2423182,1771261142.626303,0.9949851460425625,0.7011483404870069,0.2938368055555556,0.7061631944444444,1.0,C:\Users\qasim\Desktop\SocialRecognitionTask\STIMULI\INSECT\Moth\Lure_059.jpg,False,1771261242.1634774,True,1771261238.201728,1771261238.1833582,True,1.1597115993499756,1771261237.8120093,1771261237.8120093,1771261237.8120093,False,0.7061631944444444,1771261240.8103282,1771261238.30043,1771261239.8376377,recognition,0.7061631944444444,1771261235.8234494,1771261235.3065743,1771261236.8730159,1771261235.8511608,1771261242.0511105,0.5461184978485107,stay,1771261242.0238423,1771261241.4888482,False,8,lure,False
True,1771261246.5609896,1771261248.445528,0.35,1.6878681497435122,1771261248.1597724,0.03766107432802282,4,2.0436002532641093,122.61601519584656,1771261265.2423182,1771261142.626303,0.03766107432802282,0.034821564560866075,0.0724826388888889,0.03766107432802282,0.0,C:\Users\qasim\Desktop\SocialRecognitionTask\STIMULI\BIRD\Duck\Image_022.jpg,True,1771261251.5812967,True,1771261251.3185973,1771261251.2998118,False,1.520782232284546,1771261250.9882166,1771261250.9882166,1771261250.9882166,False,0.0724826388888889,1771261249.158421,1771261246.6853712,1771261248.1727781,recognition,0.9623389256719772,1771261245.493739,1771261244.9792194,1771261246.5410542,1771261245.5168567,1771261251.5334032,0.0341038703918457,switch,1771261251.5174658,1771261251.4834704,False,9,studied,True
False,1771261255.9538665,1771261257.5558226,0.35,1.179719205100824,1771261257.2463155,0.7610714655501013,4,2.0436002532641093,122.61601519584656,1771261265.2423182,1771261142.626303,0.7610714655501013,0.01584577110565688,0.7452256944444444,0.7452256944444444,0.0,C:\Users\qasim\Desktop\SocialRecognitionTask\STIMULI\smallanimal\Iguana\Image_066.jpg,True,1771261261.1038787,False,1771261260.241915,1771261260.2249866,False,1.3859291076660156,1771261259.738698,1771261259.738698,1771261259.738698,False,0.7452256944444444,1771261258.2438326,1771261256.0901804,1771261257.258515,recognition,0.2547743055555556,1771261254.8804045,1771261254.3686206,1771261255.9338083,1771261254.909697,1771261261.0196483,0.6349186897277832,stay,1771261260.997745,1771261260.3649118,False,10,studied,False
False,1771261289.5689404,1771261291.860699,0.35,2.1856420749784964,1771261291.5484674,0.8885305429417694,5,2.0823655843734743,124.94193506240845,1771261392.6944,1771261267.752465,0.8885305429417694,0.8485999873862138,0.03993055555555555,0.03993055555555555,0.0,C:\Users\qasim\Desktop\SocialRecognitionTask\STIMULI\bigobject\coatrack\Image_015.jpg,True,1771261295.3254106,True,1771261294.576431,1771261294.553306,False,1.3855996131896973,1771261293.9833915,1771261293.9833915,1771261293.9833915,False,0.03993055555555555,1771261292.5717015,1771261289.682829,1771261291.5614765,recognition,0.9600694444444444,1771261288.4865935,1771261287.964085,1771261289.5486286,1771261288.5262117,1771261295.224643,0.4483659267425537,stay,1771261295.2103531,1771261294.753942,False,1,studied,False
False,1771261301.6157753,1771261303.4109306,0.35,1.4814378881078045,1771261303.1041446,0.9715475666826733,5,2.0823655843734743,124.94193506240845,1771261392.6944,1771261267.752465,0.9715475666826733,0.9446378444604511,0.02690972222222221,0.02690972222222221,0.0,C:\Users\qasim\Desktop\SocialRecognitionTask\STIMULI\INSECT\Mosquito\Image_058.jpg,True,1771261305.3986945,True,1771261301.6147704,1771261301.592297,True,1.7177870273590088,1771261301.0229266,1771261301.0229266,1771261301.0229266,False,0.02690972222222221,1771261304.1045117,1771261301.7584028,1771261303.118076,recognition,0.9730902777777778,1771261298.7229106,1771261298.2003527,1771261299.7743936,1771261298.7523036,1771261305.3251424,0.5505664348602295,stay,1771261305.3139124,1771261304.7586298,False,2,studied,False
True,1771261312.088557,1771261313.9992037,0.35,1.7177122897663546,1771261313.6972408,0.977238731699301,5,2.0823655843734743,124.94193506240845,1771261392.6944,1771261267.752465,0.022761268300699022,0.013212657189587973,0.00954861111111105,0.990451388888889,1.0,C:\Users\qasim\Desktop\SocialRecognitionTask\STIMULI\BIRD\Hawk\Lure_025.jpg,False,1771261316.0198581,True,1771261312.0875497,1771261312.0690885,True,2.188295841217041,"1771261310.7936988,1771261311.4351907,1771261311.452908,1771261311.4733355,1771261311.4891748",1771261310.7936988,1771261311.4891748,False,0.990451388888889,1771261314.7118225,1771261312.1757295,1771261313.7107427,recognition,0.990451388888889,1771261308.7424023,1771261308.220185,1771261309.7964144,1771261308.7749345,1771261315.9425623,0.5200586318969727,stay,1771261315.9217198,1771261315.4039059,False,3,lure,False
False,1771261322.159881,1771261324.1908233,0.35,1.7414530533143868,1771261323.8851564,0.8685410750589704,5,2.0823655843734743,124.94193506240845,1771261392.6944,1771261267.752465,0.8685410750589704,0.8676730195034149,0.0008680555555555178,0.0008680555555555178,0.0,C:\Users\qasim\Desktop\SocialRecognitionTask\STIMULI\FRUIT\Orange\Image_046.jpg,True,1771261326.1368287,True,1771261322.1588812,1771261322.1340127,True,1.7210693359375,1771261321.5540206,1771261321.5540206,1771261321.5540206,False,0.0008680555555555178,1771261324.8915958,1771261322.319319,1771261323.8971546,recognition,0.9991319444444445,1771261319.298885,1771261318.7878695,1771261320.3450553,1771261319.3264651,1771261326.088073,0.48381733894348145,stay,1771261326.069484,1771261325.5833416,False,4,studied,False
True,1771261332.2928414,1771261333.8872128,0.35,1.2126459420504567,1771261333.5878236,0.07244509650129999,5,2.0823655843734743,124.94193506240845,1771261392.6944,1771261267.752465,0.07244509650129999,0.07157704094574446,0.0008680555555555178,0.0008680555555555178,0.0,C:\Users\qasim\Desktop\SocialRecognitionTask\STIMULI\VEGETABLE\Pepper\Image_089.jpg,True,1771261335.9399629,True,1771261332.2918415,1771261332.2729244,True,1.6171627044677734,1771261331.7357624,1771261331.7357624,1771261331.7357624,False,0.0008680555555555178,1771261334.5867586,1771261332.3905518,1771261333.5960581,recognition,0.9991319444444445,1771261329.498134,1771261328.975041,1771261330.5488255,1771261329.532128,1771261335.8674707,0.561398983001709,stay,1771261335.846803,1771261335.2869346,False,5,studied,False
False,1771261340.1854994,1771261342.8434143,0.35,2.551465379711467,1771261342.421439,0.01672169831192838,5,2.0823655843734743,124.94193506240845,1771261392.6944,1771261267.752465,0.9832783016880716,0.9780699683547383,0.00520833333333337,0.01672169831192838,1.0,C:\Users\qasim\Desktop\SocialRecognitionTask\STIMULI\smallanimal\Monkey\Lure_068.jpg,False,1771261345.8368983,False,1771261345.3334584,1771261345.308983,False,1.1738643646240234,1771261344.7422256,1771261344.7422256,1771261344.7422256,False,0.9947916666666666,1771261343.5401793,1771261340.2959795,1771261342.4359279,recognition,0.01672169831192838,1771261339.1137843,1771261338.597018,1771261340.165669,1771261339.141787,1771261345.7874901,0.22435545921325684,switch,1771261345.768761,1771261345.5420537,False,6,lure,True
True,1771261349.9441805,1771261351.8560715,0.35,1.586074271616538,1771261351.4573383,0.7752231917078563,5,2.0823655843734743,124.94193506240845,1771261392.6944,1771261267.752465,0.22477680829214375,0.7374627750411896,0.9622395833333334,0.03776041666666667,1.0,C:\Users\qasim\Desktop\SocialRecognitionTask\STIMULI\VEHICLE\Van\Lure_100.jpg,False,1771261355.0877707,False,1771261354.282887,1771261354.2599766,False,1.1360504627227783,1771261353.729923,1771261353.729923,1771261353.729923,False,0.03776041666666667,1771261352.5684512,1771261350.0580251,1771261351.4710283,recognition,0.03776041666666663,1771261348.8716223,1771261348.3589299,1771261349.9245129,1771261348.9029253,1771261355.0089018,0.5113170146942139,stay,1771261354.983829,1771261354.4802155,False,7,lure,False
False,1771261366.3503406,1771261367.9909575,0.35,1.341604405060581,1771261367.6852484,0.8344215707864949,5,2.0823655843734743,124.94193506240845,1771261392.6944,1771261267.752465,0.8344215707864949,0.7944910152309393,0.03993055555555555,0.03993055555555555,0.0,C:\Users\qasim\Desktop\SocialRecognitionTask\STIMULI\smallobject\Balloon\Image_071.jpg,True,1771261370.0029702,True,1771261366.3503406,1771261366.3332248,True,6.922077894210815,1771261365.8441088,1771261365.8441088,1771261365.8441088,False,0.03993055555555555,1771261368.6994798,1771261366.4280612,1771261367.6972518,recognition,0.9600694444444444,1771261358.2285137,1771261357.7100534,1771261359.2821825,1771261358.2609644,1771261369.9101982,0.4925954341888428,stay,1771261369.8850536,1771261369.3959923,False,8,studied,False
False,1771261374.4539986,1771261376.2623503,0.35,1.5773938483575514,1771261375.958851,0.08331509245870744,5,2.0823655843734743,124.94193506240845,1771261392.6944,1771261267.752465,0.9166849075412926,0.9006258797635147,0.01605902777777779,0.9839409722222222,1.0,C:\Users\qasim\Desktop\SocialRecognitionTask\STIMULI\biganimal\Camel\Lure_003.jpg,False,1771261379.6129763,True,1771261378.7855713,1771261378.7690358,False,1.247030258178711,1771261378.0691683,1771261378.0691683,1771261378.0691683,False,0.9839409722222222,1771261376.9566882,1771261374.5579567,1771261375.9719753,recognition,0.9839409722222222,1771261373.3840284,1771261372.8609035,1771261374.434406,1771261373.4150555,1771261379.5236742,0.5904841423034668,stay,1771261379.4974308,1771261378.9169748,False,9,lure,False
True,1771261384.0403721,1771261385.7869277,0.35,1.4354161838208412,1771261385.5141444,0.9608617650594046,5,2.0823655843734743,124.94193506240845,1771261392.6944,1771261267.752465,0.03913823494059543,0.03175976271837322,0.00737847222222221,0.9926215277777778,1.0,C:\Users\qasim\Desktop\SocialRecognitionTask\STIMULI\FOOD\Hotdog\Lure_035.jpg,False,1771261388.9499233,True,1771261388.1255324,1771261388.1077812,False,1.0300862789154053,1771261387.5775464,1771261387.5775464,1771261387.5775464,False,0.9926215277777778,1771261386.4925435,1771261384.158973,1771261385.5271497,recognition,0.9926215277777778,1771261382.974939,1771261382.464328,1771261384.0219207,1771261383.0015771,1771261388.8399625,0.5632827281951904,stay,1771261388.8145792,1771261388.2560065,False,10,lure,False
True,1771261418.1135418,1771261420.925351,0.75,2.7143070209346574,1771261420.4140506,0.03135568531666824,6,2.105428942044576,126.32573652267456,1771261523.1366425,1771261396.810906,0.03135568531666824,0.0044459630944460315,0.02690972222222221,0.02690972222222221,0.0,C:\Users\qasim\Desktop\SocialRecognitionTask\STIMULI\BIRD\Owl\Image_027.jpg,True,1771261424.4677901,True,1771261423.6334047,1771261423.6196246,False,1.3776915073394775,1771261423.0234015,1771261423.0234015,1771261423.0234015,False,0.02690972222222221,1771261421.6251683,1771261418.2181544,1771261420.4270587,recognition,0.9730902777777778,1771261417.0401986,1771261416.5193336,1771261418.0918474,1771261417.0683584,1771261424.422104,0.5856542587280273,stay,1771261424.4042008,1771261423.808303,False,1,studied,False
False,1771261431.734922,1771261434.3917642,0.75,2.5570829966633273,1771261433.9274037,0.4264151381931743,6,2.105428942044576,126.32573652267456,1771261523.1366425,1771261396.810906,0.5735848618068258,0.5596959729179369,0.01388888888888884,0.9861111111111112,1.0,C:\Users\qasim\Desktop\SocialRecognitionTask\STIMULI\FOOD\Pizza\Lure_039.jpg,False,1771261436.3480155,True,1771261431.7339218,1771261431.716766,True,2.5905425548553467,1771261431.11833,1771261431.11833,1771261431.11833,False,0.9861111111111112,1771261435.1034455,1771261431.8428683,1771261433.9401333,recognition,0.9861111111111112,1771261427.9235709,1771261427.402944,1771261428.9847934,1771261427.9584525,1771261436.267734,0.455747127532959,stay,1771261436.2430842,1771261435.7952147,False,2,lure,False
True,1771261442.9811854,1771261444.8594682,0.75,1.692424589939006,1771261444.5593565,0.003954460546828853,6,2.105428942044576,126.32573652267456,1771261523.1366425,1771261396.810906,0.003954460546828853,0.012104567230948892,0.016059027777777745,0.016059027777777745,0.0,C:\Users\qasim\Desktop\SocialRecognitionTask\STIMULI\bigobject\Chandelier\Image_014.jpg,True,1771261446.8058293,True,1771261442.98018,1771261442.9599214,True,2.3623270988464355,1771261442.433375,1771261442.433375,1771261442.433375,False,0.016059027777777745,1771261445.5592449,1771261443.0865567,1771261444.5703557,recognition,0.9839409722222222,1771261439.4714806,1771261438.953572,1771261440.5201066,1771261439.5001082,1771261446.7285583,0.48682737350463867,stay,1771261446.7089157,1771261446.2347999,False,3,studied,False
True,1771261450.8436642,1771261452.2593546,0.75,1.0734951363422645,1771261451.9710274,0.940888125222372,6,2.105428942044576,126.32573652267456,1771261523.1366425,1771261396.810906,0.059111874777628026,0.03871256922207256,0.02039930555555547,0.9796006944444445,1.0,C:\Users\qasim\Desktop\SocialRecognitionTask\STIMULI\smallanimal\Otter\Lure_070.jpg,False,1771261456.2973785,True,1771261454.8599122,1771261454.833022,False,1.2851731777191162,1771261454.1462314,1771261454.1462314,1771261454.1462314,False,0.9796006944444445,1771261452.9627395,1771261450.9380264,1771261451.9820268,recognition,0.9796006944444445,1771261449.7700024,1771261449.25833,1771261450.8244202,1771261449.8011205,1771261456.1913066,1.132899522781372,stay,1771261456.1684744,1771261455.035411,False,4,lure,False
False,1771261460.292935,1771261461.7920015,0.75,1.1106142570508504,1771261461.4979532,0.5380500222074215,6,2.105428942044576,126.32573652267456,1771261523.1366425,1771261396.810906,0.5380500222074215,0.5328416888740881,0.005208333333333338,0.005208333333333338,0.0,C:\Users\qasim\Desktop\SocialRecognitionTask\STIMULI\VEHICLE\Airplane\Image_091.jpg,True,1771261468.912541,True,1771261468.1004727,1771261468.0731864,False,4.968008041381836,1771261467.198575,1771261467.198575,1771261467.198575,False,0.005208333333333338,1771261462.508186,1771261460.3890536,1771261461.5109608,recognition,0.9947916666666666,1771261459.232127,1771261458.7147868,1771261460.2828746,1771261459.259374,1771261468.8202152,0.5537910461425781,stay,1771261468.7967823,1771261468.251101,False,5,studied,False
True,1771261476.0677097,1771261477.5217254,0.75,1.0648825928645385,1771261477.2363472,0.24001410552569705,6,2.105428942044576,126.32573652267456,1771261523.1366425,1771261396.810906,0.24001410552569705,0.22829535552569707,0.011718749999999983,0.011718749999999983,0.0,C:\Users\qasim\Desktop\SocialRecognitionTask\STIMULI\INSECT\Butterfly\Image_055.jpg,True,1771261479.5386112,True,1771261476.0667095,1771261476.0449,True,2.497537612915039,1771261475.6834733,1771261475.6834733,1771261475.6834733,False,0.011718749999999983,1771261478.2092552,1771261476.1663127,1771261477.2481852,recognition,0.98828125,1771261472.367581,1771261471.845271,1771261473.423515,1771261472.4014838,1771261479.442246,0.5218520164489746,stay,1771261479.414517,1771261478.9039967,False,6,studied,False
True,1771261485.43529,1771261487.7360141,0.75,2.1370967432783905,1771261487.40998,0.8493376909702033,6,2.105428942044576,126.32573652267456,1771261523.1366425,1771261396.810906,0.15066230902979671,0.14111369791868567,0.00954861111111105,0.990451388888889,1.0,C:\Users\qasim\Desktop\SocialRecognitionTask\STIMULI\biganimal\Hippopotamus\Lure_007.jpg,False,1771261489.8972454,True,1771261485.4342928,1771261485.4074275,True,1.2724390029907227,1771261484.7709389,1771261484.7709389,1771261484.7709389,False,0.990451388888889,1771261488.447919,1771261485.6058686,1771261487.4234157,recognition,0.990451388888889,1771261483.0013134,1771261482.4873657,1771261484.0544326,1771261483.0280237,1771261489.8330264,0.6864731311798096,stay,1771261489.8109322,1771261489.131158,False,7,lure,False
True,1771261494.185759,1771261495.9201148,0.75,1.3934024296763903,1771261495.6056097,0.031747044633403276,6,2.105428942044576,126.32573652267456,1771261523.1366425,1771261396.810906,0.031747044633403276,0.01351787796673665,0.018229166666666626,0.018229166666666626,0.0,C:\Users\qasim\Desktop\SocialRecognitionTask\STIMULI\FRUIT\Coconut\Image_044.jpg,True,1771261499.1423573,True,1771261498.385592,1771261498.3640938,False,1.1622560024261475,1771261497.8480155,1771261497.8480155,1771261497.8480155,False,0.018229166666666626,1771261496.6263213,1771261494.3073094,1771261495.6166136,recognition,0.9817708333333334,1771261493.114966,1771261492.5913403,1771261494.1658628,1771261493.143172,1771261499.058363,0.47438621520996094,stay,1771261499.0422046,1771261498.564951,False,8,studied,False
True,1771261505.7942557,1771261507.4961843,0.75,1.4011213870633479,1771261507.2255726,0.8937574538178746,6,2.105428942044576,126.32573652267456,1771261523.1366425,1771261396.810906,0.10624254618212536,0.06631199062656978,0.03993055555555558,0.9600694444444444,1.0,C:\Users\qasim\Desktop\SocialRecognitionTask\STIMULI\VEGETABLE\Basil\Lure_084.jpg,False,1771261509.868552,True,1771261505.7932563,1771261505.7678697,True,2.4862215518951416,1771261505.1102812,1771261505.1102812,1771261505.1102812,False,0.9600694444444444,1771261508.203114,1771261505.917136,1771261507.2343616,recognition,0.9600694444444444,1771261502.1731992,1771261501.6489618,1771261503.220315,1771261502.2002585,1771261509.7856145,0.8718838691711426,stay,1771261509.7627108,1771261508.8954432,False,9,lure,False
True,1771261514.0912635,1771261515.627556,0.75,1.164843232894752,1771261515.328363,0.8555862388068578,6,2.105428942044576,126.32573652267456,1771261523.1366425,1771261396.810906,0.1444137611931422,0.13920542785980883,0.00520833333333337,0.9947916666666666,1.0,C:\Users\qasim\Desktop\SocialRecognitionTask\STIMULI\smallobject\PairOfGlasses\Lure_077.jpg,False,1771261519.00048,True,1771261518.0054028,1771261517.9834871,False,1.0613446235656738,1771261517.4372892,1771261517.4372892,1771261517.4372892,False,0.9947916666666666,1771261516.3326387,1771261514.2121606,1771261515.341371,recognition,0.9947916666666666,1771261513.0299878,1771261512.509351,1771261514.0834892,1771261513.058896,1771261518.9015539,0.6489574909210205,stay,1771261518.8777647,1771261518.223489,False,10,lure,False
True,1771261547.7931705,1771261549.27009,0.75,1.1218822688530972,1771261548.9636912,0.9653684528106086,7,2.1811224818229675,130.86734890937805,1771261656.5118697,1771261525.6445208,0.03463154718939143,0.025082936078280382,0.00954861111111105,0.990451388888889,1.0,C:\Users\qasim\Desktop\SocialRecognitionTask\STIMULI\FOOD\Burrito\Lure_032.jpg,False,1771261554.9055285,True,1771261553.7833025,1771261553.7660356,False,3.203192710876465,1771261553.2158575,1771261553.2158575,1771261553.2158575,False,0.990451388888889,1771261549.9720495,1771261547.886413,1771261548.9772017,recognition,0.990451388888889,1771261546.7186048,1771261546.192866,1771261547.7750363,1771261546.7540426,1771261554.8210685,0.8704674243927002,stay,1771261554.7966356,1771261553.9248936,False,1,lure,False
False,1771261559.0335836,1771261560.5371468,0.75,1.2707698665141585,1771261560.297417,0.6380605836693188,7,2.1811224818229675,130.86734890937805,1771261656.5118697,1771261525.6445208,0.6380605836693188,0.6154911392248744,0.022569444444444448,0.022569444444444448,0.0,C:\Users\qasim\Desktop\SocialRecognitionTask\STIMULI\smallanimal\Mouse\Image_069.jpg,True,1771261564.6158254,True,1771261563.9049146,1771261563.883119,False,2.0741748809814453,1771261563.3442693,1771261563.3442693,1771261563.3442693,False,0.022569444444444448,1771261561.246196,1771261559.1573062,1771261560.3013687,recognition,0.9774305555555556,1771261557.9679806,1771261557.4341793,1771261559.014898,1771261557.997122,1771261564.571674,0.4450972080230713,stay,1771261564.552835,1771261564.1057072,False,2,studied,False
True,1771261571.2842832,1771261572.9723048,0.75,1.4006617231127836,1771261572.6770058,0.19302562599078782,7,2.1811224818229675,130.86734890937805,1771261656.5118697,1771261525.6445208,0.19302562599078782,0.1682860426574545,0.02473958333333333,0.02473958333333333,0.0,C:\Users\qasim\Desktop\SocialRecognitionTask\STIMULI\INSECT\Ant\Image_051.jpg,True,1771261574.8491046,True,1771261571.2832832,1771261571.2699165,True,2.520141839981079,1771261570.8205671,1771261570.8205671,1771261570.8205671,False,0.02473958333333333,1771261573.6694155,1771261571.3865569,1771261572.6927066,recognition,0.9752604166666666,1771261567.563711,1771261567.044707,1771261568.6158094,1771261567.5917082,1771261574.779453,0.40724921226501465,stay,1771261574.7590172,1771261574.3557818,False,3,studied,False
False,1771261580.8776658,1771261582.9729779,0.75,2.0026150159069966,1771261582.6603172,0.5960663881248857,7,2.1811224818229675,130.86734890937805,1771261656.5118697,1771261525.6445208,0.5960663881248857,0.5865177770137746,0.009548611111111101,0.009548611111111101,0.0,C:\Users\qasim\Desktop\SocialRecognitionTask\STIMULI\bigobject\hottub\Image_018.jpg,True,1771261585.3098233,True,1771261580.8766644,1771261580.8602867,True,1.4454607963562012,1771261580.4679594,1771261580.4679594,1771261580.4679594,False,0.009548611111111101,1771261583.6841712,1771261580.9702964,1771261582.6733274,recognition,0.990451388888889,1771261578.2399375,1771261577.7270143,1771261579.290308,1771261578.267022,1771261585.2112403,0.8157527446746826,stay,1771261585.1838324,1771261584.369646,False,4,studied,False
True,1771261589.7361186,1771261591.4897985,0.75,1.5116739442763092,1771261591.1880932,0.9587665348103771,7,2.1811224818229675,130.86734890937805,1771261656.5118697,1771261525.6445208,0.0412334651896229,0.009983465189622898,0.03125,0.96875,1.0,C:\Users\qasim\Desktop\SocialRecognitionTask\STIMULI\VEHICLE\Jeep\Lure_098.jpg,False,1771261594.6044393,True,1771261593.807809,1771261593.7943962,False,0.9917042255401611,1771261593.2484179,1771261593.2484179,1771261593.2484179,False,0.96875,1771261592.1988873,1771261589.8490734,1771261591.2011085,recognition,0.96875,1771261588.6647172,1771261588.1418524,1771261589.7170107,1771261588.691987,1771261594.5165532,0.5236310958862305,stay,1771261594.4906375,1771261593.9722347,False,5,lure,False
True,1771261598.8428183,1771261600.5033112,0.75,1.2805747995764498,1771261600.2073686,0.06123774583893024,7,2.1811224818229675,130.86734890937805,1771261656.5118697,1771261525.6445208,0.06123774583893024,0.049518995838930255,0.011718749999999983,0.011718749999999983,0.0,C:\Users\qasim\Desktop\SocialRecognitionTask\STIMULI\FRUIT\Banana\Image_042.jpg,True,1771261604.2809174,True,1771261603.5128791,1771261603.4958203,False,1.6996138095855713,1771261602.9129164,1771261602.9129164,1771261602.9129164,False,0.011718749999999983,1771261601.221097,1771261598.9717965,1771261600.2199147,recognition,0.98828125,1771261597.7770975,1771261597.2567265,1771261598.8244178,1771261597.8112533,1771261604.1573942,0.48279261589050293,stay,1771261604.1361609,1771261603.658265,False,6,studied,False
True,1771261611.126434,1771261612.9199395,0.75,1.485955930958134,1771261612.6138792,0.7959615849864232,7,2.1811224818229675,130.86734890937805,1771261656.5118697,1771261525.6445208,0.20403841501357678,0.7864129738753122,0.990451388888889,0.7959615849864232,1.0,C:\Users\qasim\Desktop\SocialRecognitionTask\STIMULI\smallobject\Football\Lure_076.jpg,False,1771261614.9502556,True,1771261611.1254308,1771261611.1005445,True,2.3406407833099365,1771261610.5417736,1771261610.5417736,1771261610.5417736,False,0.009548611111111101,1771261613.6246789,1771261611.2647436,1771261612.6299074,recognition,0.7959615849864232,1771261607.5761974,1771261607.0695603,1771261608.6320827,1771261607.6083403,1771261614.8726938,0.5423531532287598,switch,1771261614.8500774,1771261614.3144193,False,7,lure,True
True,1771261621.8153284,1771261623.7100365,0.75,1.4509806927216715,1771261623.402325,0.816984734502685,7,2.1811224818229675,130.86734890937805,1771261656.5118697,1771261525.6445208,0.18301526549731495,0.7987555678360184,0.9817708333333334,0.816984734502685,1.0,C:\Users\qasim\Desktop\SocialRecognitionTask\STIMULI\biganimal\Horse\Lure_008.jpg,False,1771261626.165368,True,1771261621.8143287,1771261621.7920563,True,2.1971685886383057,1771261621.1765745,1771261621.1765745,1771261621.1765745,False,0.018229166666666626,1771261624.4109323,1771261621.9784832,1771261623.4150586,recognition,0.816984734502685,1771261618.401552,1771261617.8801513,1771261619.4490967,1771261618.4260266,1771261626.034301,0.917001485824585,switch,1771261626.0087934,1771261625.0994785,False,8,lure,True
True,1771261634.805511,1771261637.7248495,0.75,2.8436042286446517,1771261637.2176287,0.7789371994777966,7,2.1811224818229675,130.86734890937805,1771261656.5118697,1771261525.6445208,0.2210628005222034,0.2050037727444256,0.01605902777777779,0.9839409722222222,1.0,C:\Users\qasim\Desktop\SocialRecognitionTask\STIMULI\BIRD\Parrot\Lure_028.jpg,False,1771261640.2491376,True,1771261634.8045104,1771261634.785014,True,4.377304792404175,1771261634.0896885,1771261634.0896885,1771261634.0896885,False,0.9839409722222222,1771261638.429924,1771261634.887537,1771261637.2296262,recognition,0.9839409722222222,1771261629.2285728,1771261628.7059205,1771261630.2820606,1771261629.2583346,1771261640.1538022,1.0439577102661133,stay,1771261640.1271582,1771261639.0937452,False,9,lure,False
True,1771261644.5916786,1771261646.4001079,0.75,1.555396433568688,1771261646.0945346,0.2409673140703007,7,2.1811224818229675,130.86734890937805,1771261656.5118697,1771261525.6445208,0.2409673140703007,0.09469995295918962,0.14626736111111108,0.14626736111111108,0.0,C:\Users\qasim\Desktop\SocialRecognitionTask\STIMULI\VEGETABLE\Carrot\Image_087.jpg,True,1771261652.3257508,True,1771261651.0085552,1771261650.983289,False,3.2888753414154053,1771261649.4666114,1771261649.4666114,1771261649.4666114,False,0.14626736111111108,1771261647.104759,1771261644.6985712,1771261646.1082323,recognition,0.853732638888889,1771261643.5311964,1771261643.0095813,1771261644.5806487,1771261643.5589867,1771261652.2350366,1.0360887050628662,stay,1771261652.2104704,1771261651.1855943,False,10,studied,False
False,1771261687.6628215,1771261689.719168,0.35,1.9493030036233086,1771261689.4675348,0.14692091368922694,8,2.026128911972046,121.56773471832275,1771261784.1717782,1771261662.6040435,0.8530790863107731,0.13737230257811583,0.990451388888889,0.009548611111111101,1.0,C:\Users\qasim\Desktop\SocialRecognitionTask\STIMULI\FRUIT\Mulberry\Lure_045.jpg,False,1771261691.791512,False,1771261687.6616967,1771261687.636216,True,2.869117498397827,1771261686.6946032,1771261686.6946032,1771261686.6946032,False,0.009548611111111101,1771261690.398084,1771261687.7644203,1771261689.472047,recognition,0.00954861111111105,1771261683.606762,1771261683.0845747,1771261684.6567943,1771261683.6352348,1771261691.7434464,0.6310961246490479,stay,1771261691.720621,1771261691.0893116,False,1,lure,False
True,1771261699.0955307,1771261700.767645,0.35,1.3034348064093502,1771261700.4680896,0.06899529723960729,8,2.026128911972046,121.56773471832275,1771261784.1717782,1771261662.6040435,0.06899529723960729,0.8954144249826149,0.9644097222222222,0.06899529723960729,0.0,C:\Users\qasim\Desktop\SocialRecognitionTask\STIMULI\VEHICLE\Jetski\Image_099.jpg,True,1771261702.9456847,True,1771261699.0955307,1771261699.0720856,True,2.793713092803955,1771261698.3554423,1771261698.3554423,1771261698.3554423,False,0.9644097222222222,1771261701.4682658,1771261699.2428896,1771261700.4801078,recognition,0.9310047027603927,1771261695.0650785,1771261694.540528,1771261696.1169193,1771261695.0923176,1771261702.8425426,0.6554999351501465,switch,1771261702.8169906,1771261702.181386,False,2,studied,True
True,1771261707.2426052,1771261709.0314481,0.35,1.5218279161475716,1771261708.7243905,0.0357094237234038,8,2.026128911972046,121.56773471832275,1771261784.1717782,1771261662.6040435,0.0357094237234038,0.01096984039007047,0.02473958333333333,0.02473958333333333,0.0,C:\Users\qasim\Desktop\SocialRecognitionTask\STIMULI\smallobject\Globe\Image_078.jpg,True,1771261712.221332,True,1771261711.4582517,1771261711.4459634,False,1.0699958801269531,1771261711.036652,1771261711.036652,1771261711.036652,False,0.02473958333333333,1771261709.7457979,1771261707.3481867,1771261708.7314022,recognition,0.9752604166666666,1771261706.1695955,1771261705.6486363,1771261707.2238433,1771261706.2001395,1771261712.1204371,0.4771997928619385,stay,1771261712.0918753,1771261711.6203122,False,3,studied,False
False,1771261717.9726987,1771261719.4859152,0.35,1.016541318376419,1771261719.1840723,0.9823289338589165,8,2.026128911972046,121.56773471832275,1771261784.1717782,1771261662.6040435,0.9823289338589165,0.016803010585528022,0.9991319444444445,0.9991319444444445,0.0,C:\Users\qasim\Desktop\SocialRecognitionTask\STIMULI\FOOD\Pie\Image_038.jpg,True,1771261721.5898302,False,1771261717.9726987,1771261717.9512875,True,1.4997515678405762,"1771261717.3886318,1771261717.4058812",1771261717.3886318,1771261717.4058812,False,0.9991319444444445,1771261720.1897776,1771261718.115662,1771261719.197071,recognition,0.0008680555555554692,1771261715.247652,1771261714.7346213,1771261716.300478,1771261715.2771635,1771261721.4837492,0.5763864517211914,stay,1771261721.4565358,1771261720.8890293,False,4,studied,False
True,1771261726.0020664,1771261727.484365,0.35,1.1011571605505102,1771261727.1855452,0.057940364475994016,8,2.026128911972046,121.56773471832275,1771261784.1717782,1771261662.6040435,0.057940364475994016,0.9216603299684505,0.9796006944444445,0.9796006944444445,0.0,C:\Users\qasim\Desktop\SocialRecognitionTask\STIMULI\biganimal\Alligator\Image_001.jpg,True,1771261730.7652078,False,1771261730.0586576,1771261730.0364387,False,1.26353120803833,"1771261729.3770916,1771261729.396637,1771261729.4204884,1771261729.4450424,1771261729.4708157,1771261729.4907806",1771261729.3770916,1771261729.4907806,False,0.9796006944444445,1771261728.1681697,1771261726.1099002,1771261727.199597,recognition,0.02039930555555547,1771261724.9314682,1771261724.4153101,1771261725.982734,1771261724.958405,1771261730.6970954,0.4201929569244385,stay,1771261730.6753337,1771261730.2592676,False,5,studied,False
False,1771261735.2199762,1771261737.199691,0.35,1.831017086069281,1771261736.8973145,0.043287247567807635,8,2.026128911972046,121.56773471832275,1771261784.1717782,1771261662.6040435,0.9567127524321923,0.9536745579877479,0.0030381944444444198,0.9969618055555556,1.0,C:\Users\qasim\Desktop\SocialRecognitionTask\STIMULI\VEGETABLE\bokchoy\Lure_086.jpg,False,1771261740.4753187,True,1771261739.7494287,1771261739.7265162,False,1.2270359992980957,1771261739.0760853,1771261739.0760853,1771261739.0760853,False,0.9969618055555556,1771261737.9116714,1771261735.310458,1771261736.9093237,recognition,0.9969618055555556,1771261734.147704,1771261733.6327105,1771261735.201271,1771261734.1763847,1771261740.4260182,0.526055097579956,stay,1771261740.4082127,1771261739.8782685,False,6,lure,False
False,1771261744.7473536,1771261746.2892585,0.35,1.2126813777925831,1771261745.978641,0.9642166557970219,8,2.026128911972046,121.56773471832275,1771261784.1717782,1771261662.6040435,0.9642166557970219,0.9112652669081329,0.0529513888888889,0.0529513888888889,0.0,C:\Users\qasim\Desktop\SocialRecognitionTask\STIMULI\bigobject\Phonebooth\Image_020.jpg,True,1771261749.9158602,True,1771261749.191826,1771261749.166454,False,1.5645511150360107,1771261748.690555,1771261748.690555,1771261748.690555,False,0.0529513888888889,1771261746.9930768,1771261744.8520029,1771261745.9916508,recognition,0.947048611111111,1771261743.684579,1771261743.17183,1771261744.7299533,1771261743.7102306,1771261749.8277376,0.41474318504333496,stay,1771261749.8027406,1771261749.3911266,False,7,studied,False
False,1771261754.1580307,1771261755.5339596,0.35,1.036471417160046,1771261755.2511063,0.1561800415401604,8,2.026128911972046,121.56773471832275,1771261784.1717782,1771261662.6040435,0.8438199584598396,0.8169102362376173,0.02690972222222232,0.9730902777777777,1.0,C:\Users\qasim\Desktop\SocialRecognitionTask\STIMULI\INSECT\Beetle\Lure_053.jpg,False,1771261759.4588299,True,1771261758.6498709,1771261758.625414,False,1.7847609519958496,1771261758.1130066,1771261758.1130066,1771261758.1130066,False,0.9730902777777777,1771261756.2263215,1771261754.2222002,1771261755.2572563,recognition,0.9730902777777777,1771261753.0937674,1771261752.5742958,1771261754.1435297,1771261753.124233,1771261759.3544915,0.4785492420196533,stay,1771261759.3336577,1771261758.8475711,False,8,lure,False
False,1771261765.7162142,1771261767.601025,0.35,1.6655464909339603,1771261767.2976325,0.22165351367042754,8,2.026128911972046,121.56773471832275,1771261784.1717782,1771261662.6040435,0.7783464863295725,0.6950131529962392,0.08333333333333326,0.9166666666666667,1.0,C:\Users\qasim\Desktop\SocialRecognitionTask\STIMULI\smallanimal\Beaver\Lure_061.jpg,False,1771261769.5662346,True,1771261765.7162142,1771261765.691922,True,1.7656524181365967,1771261765.237616,1771261765.237616,1771261765.237616,False,0.9166666666666667,1771261768.3128324,1771261765.8223832,1771261767.3096406,recognition,0.9166666666666667,1771261762.7715466,1771261762.2480533,1771261763.8243394,1771261762.8009455,1771261769.4930542,0.48245859146118164,stay,1771261769.4652278,1771261768.991572,False,9,lure,False
True,1771261775.267545,1771261778.3643978,0.35,3.004381844771575,1771261777.795722,0.8895517419241415,8,2.026128911972046,121.56773471832275,1771261784.1717782,1771261662.6040435,0.11044825807585845,0.018457991924141548,0.12890625,0.87109375,1.0,C:\Users\qasim\Desktop\SocialRecognitionTask\STIMULI\BIRD\Chicken\Lure_021.jpg,False,1771261780.611197,True,1771261775.2665403,1771261775.2509754,True,1.07368803024292,1771261774.8728335,1771261774.8728335,1771261774.8728335,False,0.87109375,1771261779.0656428,1771261775.3674574,1771261777.8092039,recognition,0.87109375,1771261773.0067928,1771261772.4879606,1771261774.0664568,1771261773.042015,1771261780.4960454,0.7079014778137207,stay,1771261780.4676461,1771261779.7715745,False,10,lure,False
False,1771261812.2626982,1771261814.7316763,0.35,2.3633676020460745,1771261814.339826,0.8111042746704376,9,2.0018298109372457,120.10978865623474,1771261906.9283168,1771261786.8185282,0.8111042746704376,0.18368739199622908,0.9947916666666666,0.9947916666666666,0.0,C:\Users\qasim\Desktop\SocialRecognitionTask\STIMULI\smallanimal\Koala\Image_067.jpg,True,1771261816.6233978,False,1771261812.2626982,1771261812.2428527,True,3.449774742126465,1771261811.0699692,1771261811.0699692,1771261811.0699692,False,0.9947916666666666,1771261815.444001,1771261812.373099,1771261814.3535259,recognition,0.00520833333333337,1771261807.6232362,1771261807.0985537,1771261808.6826544,1771261807.659207,1771261816.5515263,0.43082308769226074,stay,1771261816.5274289,1771261816.1043646,False,1,studied,False
True,1771261822.2796779,1771261823.635738,0.35,1.00768704611915,1771261823.3468468,0.1136526702816931,9,2.0018298109372457,120.10978865623474,1771261906.9283168,1771261786.8185282,0.1136526702816931,0.07589225361502643,0.03776041666666667,0.03776041666666667,0.0,C:\Users\qasim\Desktop\SocialRecognitionTask\STIMULI\biganimal\Zebra\Image_010.jpg,True,1771261826.1004639,True,1771261822.2796779,1771261822.260202,True,1.4778721332550049,1771261821.9811666,1771261821.9811666,1771261821.9811666,False,0.03776041666666667,1771261824.3450918,1771261822.354182,1771261823.3599122,recognition,0.9622395833333334,1771261819.6149588,1771261819.0940185,1771261820.6757886,1771261819.6420283,1771261825.991743,0.935295581817627,stay,1771261825.9678545,1771261825.0391188,False,2,studied,False
True,1771261830.2502735,1771261831.8690317,0.35,1.265294854369622,1771261831.5523233,0.7681868163155058,9,2.0018298109372457,120.10978865623474,1771261906.9283168,1771261786.8185282,0.23181318368449422,0.1897124892400498,0.04210069444444442,0.9578993055555556,1.0,C:\Users\qasim\Desktop\SocialRecognitionTask\STIMULI\VEGETABLE\Squash\Lure_090.jpg,False,1771261835.1479807,True,1771261834.3843338,1771261834.3670173,False,1.1728646755218506,1771261833.8115468,1771261833.8115468,1771261833.8115468,False,0.9578993055555556,1771261832.5898745,1771261830.3805532,1771261831.5663352,recognition,0.9578993055555556,1771261829.1815355,1771261828.666687,1771261830.231764,1771261829.2089581,1771261835.049836,0.480785608291626,stay,1771261835.024871,1771261834.54201,False,3,lure,False
True,1771261840.8846724,1771261842.656241,0.35,1.3956641153530789,1771261842.3447995,0.9183776451132801,9,2.0018298109372457,120.10978865623474,1771261906.9283168,1771261786.8185282,0.08162235488671987,0.022160549331164292,0.05946180555555558,0.9405381944444444,1.0,C:\Users\qasim\Desktop\SocialRecognitionTask\STIMULI\FOOD\Donut\Lure_034.jpg,False,1771261844.6793325,True,1771261840.8836682,1771261840.8570175,True,1.5416650772094727,1771261840.3257763,1771261840.3257763,1771261840.3257763,False,0.9405381944444444,1771261843.3593307,1771261841.0401142,1771261842.3599486,recognition,0.9405381944444444,1771261838.1636388,1771261837.6458056,1771261839.2172456,1771261838.1925812,1771261844.6169481,0.5481405258178711,stay,1771261844.5918567,1771261844.0491273,False,4,lure,False
False,1771261849.0440292,1771261850.67135,0.35,1.2444091591715916,1771261850.3636546,0.9015234770320263,9,2.0018298109372457,120.10978865623474,1771261906.9283168,1771261786.8185282,0.9015234770320263,0.8746137548098041,0.02690972222222221,0.02690972222222221,0.0,C:\Users\qasim\Desktop\SocialRecognitionTask\STIMULI\BIRD\Flamingo\Image_023.jpg,True,1771261853.7815237,True,1771261853.0395033,1771261853.0164998,False,1.0446419715881348,1771261852.6625397,1771261852.6625397,1771261852.6625397,False,0.02690972222222221,1771261851.3797648,1771261849.14637,1771261850.3766646,recognition,0.9730902777777778,1771261847.9733272,1771261847.4556553,1771261849.0231357,1771261848.0005236,1771261853.702767,0.467806339263916,stay,1771261853.6802382,1771261853.2189682,False,5,studied,False
True,1771261857.9572058,1771261859.729837,0.35,1.5131454033891603,1771261859.4276025,0.7716593525168071,9,2.0018298109372457,120.10978865623474,1771261906.9283168,1771261786.8185282,0.22834064748319294,0.19275036970541515,0.03559027777777779,0.9644097222222222,1.0,C:\Users\qasim\Desktop\SocialRecognitionTask\STIMULI\bigobject\Mailbox\Lure_019.jpg,False,1771261863.3302202,True,1771261862.4068644,1771261862.386225,False,1.4020957946777344,1771261861.6115248,1771261861.6115248,1771261861.6115248,False,0.9644097222222222,1771261860.3925242,1771261858.066584,1771261859.4391315,recognition,0.9644097222222222,1771261856.8986197,1771261856.3817859,1771261857.9484196,1771261856.9251251,1771261863.2429113,0.6594071388244629,stay,1771261863.2174916,1771261862.5609715,False,6,lure,False
False,1771261868.8507967,1771261870.7603297,0.35,1.7051930250210479,1771261870.4556851,0.7902783062516441,9,2.0018298109372457,120.10978865623474,1771261906.9283168,1771261786.8185282,0.7902783062516441,0.7091151118071997,0.08116319444444442,0.08116319444444442,0.0,C:\Users\qasim\Desktop\SocialRecognitionTask\STIMULI\INSECT\Wasp\Image_060.jpg,True,1771261872.6606688,True,1771261868.849789,1771261868.8343067,True,1.2445542812347412,1771261868.5784097,1771261868.5784097,1771261868.5784097,False,0.08116319444444442,1771261871.4630907,1771261868.9595137,1771261870.4709826,recognition,0.9188368055555556,1771261866.4060812,1771261865.8861537,1771261867.4550638,1771261866.433687,1771261872.6100438,0.4308748245239258,stay,1771261872.593006,1771261872.1615667,False,7,studied,False
False,1771261879.0161939,1771261880.8810337,0.35,1.6850462095633327,1771261880.5779407,0.11013571240844078,9,2.0018298109372457,120.10978865623474,1771261906.9283168,1771261786.8185282,0.8898642875915592,0.8738052598137814,0.01605902777777779,0.9839409722222222,1.0,C:\Users\qasim\Desktop\SocialRecognitionTask\STIMULI\VEHICLE\cruiseship\Lure_096.jpg,False,1771261883.3730469,True,1771261879.0161939,1771261878.9989147,True,2.197930335998535,"1771261877.7534573,1771261878.5621457",1771261877.7534573,1771261878.5621457,False,0.9839409722222222,1771261881.5937598,1771261879.0877023,1771261880.588948,recognition,0.9839409722222222,1771261875.6643825,1771261875.1392088,1771261876.7149143,1771261875.6935778,1771261883.2580802,0.9809293746948242,stay,1771261883.2378323,1771261882.2605934,False,8,lure,False
False,1771261887.6423264,1771261890.093377,0.35,2.3258800617041153,1771261889.731215,0.22229600397912808,9,2.0018298109372457,120.10978865623474,1771261906.9283168,1771261786.8185282,0.7777039960208719,0.7529644126875387,0.02473958333333326,0.9752604166666667,1.0,C:\Users\qasim\Desktop\SocialRecognitionTask\STIMULI\FRUIT\Strawberry\Lure_049.jpg,False,1771261893.4872673,True,1771261892.7209494,1771261892.7019622,False,1.2928576469421387,1771261892.1189625,1771261892.1189625,1771261892.1189625,False,0.9752604166666667,1771261890.7943802,1771261887.7786827,1771261889.7450893,recognition,0.9752604166666667,1771261886.5704632,1771261886.05251,1771261887.623203,1771261886.5998285,1771261893.4377956,0.5359673500061035,stay,1771261893.4164736,1771261892.8797553,False,9,lure,False
False,1771261897.952725,1771261899.5278728,0.35,1.254017151272118,1771261899.2483695,0.8650076093497228,9,2.0018298109372457,120.10978865623474,1771261906.9283168,1771261786.8185282,0.8650076093497228,0.13195419620583282,0.9969618055555556,0.9969618055555556,0.0,C:\Users\qasim\Desktop\SocialRecognitionTask\STIMULI\smallobject\Envelope\Image_075.jpg,True,1771261902.8621693,False,1771261901.9024596,1771261901.8841562,False,1.055260181427002,"1771261901.3210652,1771261901.3394449",1771261901.3210652,1771261901.3394449,False,0.9969618055555556,1771261900.229539,1771261898.0531657,1771261899.262379,recognition,0.0030381944444444198,1771261896.865314,1771261896.3417058,1771261897.932263,1771261896.9110825,1771261902.717097,0.631941556930542,stay,1771261902.6922605,1771261902.0617514,False,10,studied,False
True,1771261942.066345,1771261944.050083,0.35,1.8588889313638297,1771261943.7464917,0.01477937171552604,10,2.1215115070343016,127.2906904220581,1771262038.4710155,1771261911.180325,0.01477937171552604,0.0815747949511406,0.09635416666666664,0.09635416666666664,0.0,C:\Users\qasim\Desktop\SocialRecognitionTask\STIMULI\VEGETABLE\Bean\Image_085.jpg,True,1771261946.0530005,True,1771261942.064839,1771261942.0450919,True,6.998406410217285,1771261941.5585964,1771261941.5585964,1771261941.5585964,False,0.09635416666666664,1771261944.7503235,1771261942.1544764,1771261943.758497,recognition,0.9036458333333334,1771261933.8577294,1771261933.334423,1771261934.9083657,1771261933.8877046,1771261945.9699132,0.5389950275421143,stay,1771261945.9462993,1771261945.4132302,False,1,studied,False
True,1771261951.477271,1771261953.599851,0.35,1.9906675655898365,1771261953.2841182,0.9587541282769766,10,2.1215115070343016,127.2906904220581,1771262038.4710155,1771261911.180325,0.04124587172302341,0.018676427278578878,0.02256944444444453,0.9774305555555555,1.0,C:\Users\qasim\Desktop\SocialRecognitionTask\STIMULI\INSECT\Bug\Lure_054.jpg,False,1771261955.5731564,True,1771261951.4760585,1771261951.4550343,True,1.0712153911590576,1771261951.028227,1771261951.028227,1771261951.028227,False,0.9774305555555555,1771261954.2624154,1771261951.569741,1771261953.2965732,recognition,0.9774305555555555,1771261949.2034996,1771261948.6863325,1771261950.2575135,1771261949.2326121,1771261955.475546,0.5238461494445801,stay,1771261955.450799,1771261954.9312136,False,2,lure,False
True,1771261959.9888575,1771261961.893279,0.35,1.7435278252430813,1771261961.5851324,0.09993556430189912,10,2.1215115070343016,127.2906904220581,1771262038.4710155,1771261911.180325,0.09993556430189912,0.05783486985745469,0.042100694444444434,0.042100694444444434,0.0,C:\Users\qasim\Desktop\SocialRecognitionTask\STIMULI\VEHICLE\Helicopter\Image_097.jpg,True,1771261964.8112204,True,1771261964.1771822,1771261964.1588545,False,0.9384505748748779,1771261963.7959619,1771261963.7959619,1771261963.7959619,False,0.042100694444444434,1771261962.6116548,1771261960.0724413,1771261961.5956044,recognition,0.9578993055555556,1771261958.9140084,1771261958.3927827,1771261959.9679954,1771261958.942078,1771261964.7363882,0.41260194778442383,stay,1771261964.7164555,1771261964.3146436,False,3,studied,False
False,1771261969.0598216,1771261970.578367,0.35,1.2445755518197779,1771261970.2928011,0.056676029530886185,10,2.1215115070343016,127.2906904220581,1771262038.4710155,1771261911.180325,0.9433239704691139,0.929435081580225,0.01388888888888884,0.9861111111111112,1.0,C:\Users\qasim\Desktop\SocialRecognitionTask\STIMULI\smallanimal\Cat\Lure_062.jpg,False,1771261973.3931246,True,1771261972.6793737,1771261972.6554534,False,0.7612118721008301,1771261972.0201347,1771261972.0201347,1771261972.0201347,False,0.9861111111111112,1771261971.2784674,1771261969.125522,1771261970.2994764,recognition,0.9861111111111112,1771261967.9924033,1771261967.4677854,1771261969.0445375,1771261968.0247662,1771261973.306087,0.45331621170043945,stay,1771261973.277809,1771261972.8355803,False,4,lure,False
False,1771261977.5783312,1771261979.451397,0.35,1.6710012876491855,1771261979.1413722,0.9193095244391508,10,2.1215115070343016,127.2906904220581,1771262038.4710155,1771261911.180325,0.9193095244391508,0.8945699411058174,0.02473958333333333,0.02473958333333333,0.0,C:\Users\qasim\Desktop\SocialRecognitionTask\STIMULI\BIRD\Penguin\Image_030.jpg,True,1771261982.2899408,True,1771261981.6387103,1771261981.6206932,False,0.8500962257385254,1771261981.229362,1771261981.229362,1771261981.229362,False,0.02473958333333333,1771261980.1406534,1771261977.674814,1771261979.154798,recognition,0.9752604166666666,1771261976.5038395,1771261975.9901102,1771261977.5586636,1771261976.5326147,1771261982.2330887,0.430844783782959,stay,1771261982.2164245,1771261981.7812767,False,5,studied,False
False,1771261986.417397,1771261988.5288208,0.35,2.011572702819384,1771261988.2257612,0.14187323479143252,10,2.1215115070343016,127.2906904220581,1771262038.4710155,1771261911.180325,0.8581267652085675,0.8529184318752341,0.00520833333333337,0.9947916666666666,1.0,C:\Users\qasim\Desktop\SocialRecognitionTask\STIMULI\smallobject\Blender\Lure_073.jpg,False,1771261991.398874,True,1771261990.6165564,1771261990.5949752,False,0.8553652763366699,1771261989.9700923,1771261989.9700923,1771261989.9700923,False,0.9947916666666666,1771261989.1804492,1771261986.5078182,1771261988.2382755,recognition,0.9947916666666666,1771261985.3482025,1771261984.8245125,1771261986.3980045,1771261985.3768957,1771261991.3071494,0.499849796295166,stay,1771261991.286869,1771261990.7915635,False,6,lure,False
True,1771261995.618336,1771261997.2774107,0.35,1.39483248110512,1771261996.9799268,0.9763659802610638,10,2.1215115070343016,127.2906904220581,1771262038.4710155,1771261911.180325,0.023634019738936196,0.009786119149952643,0.03342013888888884,0.9665798611111112,1.0,C:\Users\qasim\Desktop\SocialRecognitionTask\STIMULI\FRUIT\Watermelon\Lure_050.jpg,False,1771262001.0787694,True,1771262000.058152,1771262000.03526,False,1.4617457389831543,1771261999.2553234,1771261999.2553234,1771261999.2553234,False,0.9665798611111112,1771261997.9778197,1771261995.7350743,1771261996.9929097,recognition,0.9665798611111112,1771261994.5519795,1771261994.025206,1771261995.5991564,1771261994.573785,1771262000.999774,0.7480542659759521,stay,1771262000.9736547,1771262000.225764,False,7,lure,False
False,1771262007.4267788,1771262010.8663085,0.35,3.278999487226663,1771262010.2101495,0.9270250606110837,10,2.1215115070343016,127.2906904220581,1771262038.4710155,1771261911.180325,0.9270250606110837,0.8784139494999726,0.04861111111111108,0.04861111111111108,0.0,C:\Users\qasim\Desktop\SocialRecognitionTask\STIMULI\FOOD\Pasta\Image_037.jpg,True,1771262013.012641,True,1771262007.4257762,1771262007.3996618,True,1.881155014038086,1771262007.0038257,1771262007.0038257,1771262007.0038257,False,0.04861111111111108,1771262011.5861306,1771262007.6024673,1771262010.221148,recognition,0.951388888888889,1771262004.3472695,1771262003.8261573,1771262005.400194,1771262004.3763194,1771262012.9332108,0.6398835182189941,stay,1771262012.9075727,1771262012.2741249,False,8,studied,False
False,1771262019.5756967,1771262021.0714455,0.35,1.060113776467246,1771262020.764529,0.15341312624775813,10,2.1215115070343016,127.2906904220581,1771262038.4710155,1771261911.180325,0.8465868737522418,0.7871250681966863,0.05946180555555558,0.9405381944444444,1.0,C:\Users\qasim\Desktop\SocialRecognitionTask\STIMULI\biganimal\Walrus\Lure_009.jpg,False,1771262023.2807074,True,1771262019.574678,1771262019.555658,True,1.9796128273010254,1771262019.0343845,1771262019.0343845,1771262019.0343845,False,0.9405381944444444,1771262021.7592452,1771262019.6951544,1771262020.774599,recognition,0.9405381944444444,1771262016.4058228,1771262015.8931124,1771262017.458455,1771262016.4346557,1771262023.1787155,0.726677417755127,stay,1771262023.1531482,1771262022.431893,False,9,lure,False
False,1771262030.9505932,1771262032.7519946,0.35,1.627809428836707,1771262032.4428365,0.9520256983028664,10,2.1215115070343016,127.2906904220581,1771262038.4710155,1771261911.180325,0.9520256983028664,0.04059582947491136,0.9926215277777778,0.9926215277777778,0.0,C:\Users\qasim\Desktop\SocialRecognitionTask\STIMULI\bigobject\Bench\Image_012.jpg,True,1771262034.75312,False,1771262030.949596,1771262030.9294949,True,3.007122278213501,1771262028.8983688,1771262028.8983688,1771262028.8983688,False,0.9926215277777778,1771262033.4716175,1771262031.038886,1771262032.4558928,recognition,0.00737847222222221,1771262026.7137961,1771262026.1868222,1771262027.7740412,1771262026.7507896,1771262034.6757295,0.5019972324371338,stay,1771262034.6477509,1771262034.1566513,False,10,studied,False
