block,trial,phase,trial_type,is_studied,image_path,image_onset,participant_first,participant_slider_value,participant_rt,participant_commit_time,participant_slider_timeout,participant_slider_stop_time,ai_slider_value,ai_rt,ai_decision_time,ai_slider_display_time,ai_correct,switch_stay_decision,switch_rt,switch_commit_time,switch_timeout,decision_onset_time,final_answer,used_ai_answer,ground_truth,participant_accuracy,euclidean_participant_to_truth,euclidean_ai_to_truth,euclidean_participant_to_ai,outcome_time,coins_earned,social_feedback,social_feedback_time,block_start_time,block_end_time,block_duration_seconds,block_duration_minutes
0,1,recognition,studied,True,PLACEHOLDERS/IMAGE_4.png,1764913728.6512551,True,0.265625,2.3136796951293945,1764913732.0271978,False,1764913731.301457,0.6870783101200842,1.4599141858753362,1764913732.040494,1764913733.20627,False,switch,1.0431082248687744,1764913737.527755,False,1764913736.4846468,0.6870783101200842,True,0.0,False,0.265625,0.6870783101200842,0.42145331012008425,1764913737.531839,0.31292168987991575,False,,1764913712.372533,1764913790.837396,78.46486282348633,1.3077477137247722
0,2,recognition,lure,False,PLACEHOLDERS/LURE_2.png,1764913739.612673,True,0.2673611111111111,1.7106800079345703,1764913742.3625631,False,1764913741.661422,0.005791300414613487,1.3614220103078745,1764913742.3653219,1764913743.4728901,False,switch,0.7710590362548828,1764913747.4957361,False,1764913746.7246761,0.005791300414613487,True,1.0,False,0.7326388888888888,0.9942086995853865,0.2615698106964976,1764913747.498488,0.5057913004146135,True,1764913749.047219,1764913712.372533,1764913790.837396,78.46486282348633,1.3077477137247722
0,3,recognition,lure,False,PLACEHOLDERS/LURE_3.png,1764913751.576179,True,0.0,2.3832831382751465,1764913755.011342,False,1764913754.1551921,0.9193416942806375,1.9114749911787168,1764913755.018328,1764913756.5175319,True,stay,0.8865740299224854,1764913760.6754801,False,1764913759.788906,0.0,False,1.0,False,1.0,0.0806583057193625,0.9193416942806375,1764913760.6771681,0.0,False,,1764913712.372533,1764913790.837396,78.46486282348633,1.3077477137247722
0,4,recognition,studied,True,PLACEHOLDERS/IMAGE_10.png,1764913762.705398,True,0.9375,1.8371622562408447,1764913765.5879092,False,1764913764.877975,0.4242455338227502,1.315808503897905,1764913765.5896509,1764913766.641811,True,stay,1.4171440601348877,1764913771.312601,False,1764913769.895457,0.9375,False,0.0,False,0.9375,0.4242455338227502,0.5132544661772498,1764913771.318843,0.0625,False,,1764913712.372533,1764913790.837396,78.46486282348633,1.3077477137247722
0,5,recognition,lure,False,PLACEHOLDERS/LURE_1.png,1764913773.351116,True,0.0,1.9654572010040283,1764913776.3616362,False,1764913775.568786,0.03341654343641601,1.2795133013481386,1764913776.367038,1764913777.3580081,False,switch,2.391474962234497,1764913783.063041,False,1764913780.671566,0.03341654343641601,True,1.0,False,1.0,0.966583456563584,0.03341654343641601,1764913783.066169,0.03341654343641598,False,,1764913712.372533,1764913790.837396,78.46486282348633,1.3077477137247722
1,1,recognition,lure,False,STIMULI/FOOD/Hotdog/Lure_035.jpg,1764913831.934467,False,1.0,2.5624489784240723,1764913839.026664,False,1764913838.208565,0.1651351117223252,3.062079386715283,1764913832.939224,1764913835.28955,False,stay,1.2383360862731934,1764913842.4158132,False,1764913841.1774771,1.0,False,1.0,True,0.0,0.8348648882776748,0.8348648882776748,1764913842.416808,1.0,False,,1764913803.3076339,1764914001.6492312,198.3415973186493,3.305693288644155
1,2,recognition,lure,False,STIMULI/SMALL_OBJECT/Camera/Lure_074.jpg,1764913844.476732,False,0.0,2.149655818939209,1764913849.375078,False,1764913848.595613,0.23280774348276584,0.6800919655866718,1764913845.4785988,1764913846.068116,False,stay,4.586623907089233,1764913856.111352,False,1764913851.524727,0.0,False,1.0,False,1.0,0.7671922565172342,0.23280774348276584,1764913856.122009,0.0,False,,1764913803.3076339,1764914001.6492312,198.3415973186493,3.305693288644155
1,3,recognition,studied,True,STIMULI/BIRD/Parrot/Image_028.jpg,1764913858.165225,False,1.0,5.196617841720581,1764913866.8192918,False,1764913864.663651,0.7166872830762493,1.5809230840680781,1764913859.165699,1764913860.453156,False,stay,2.2539520263671875,1764913871.212343,False,1764913868.95839,1.0,False,0.0,False,1.0,0.7166872830762493,0.2833127169237507,1764913871.21716,0.0,False,,1764913803.3076339,1764914001.6492312,198.3415973186493,3.305693288644155
1,4,recognition,studied,True,STIMULI/SMALL_ANIMAL/Iguana/Image_066.jpg,1764913873.2667809,False,0.0,4.385630130767822,1764913880.944988,False,1764913880.1474519,0.6651863329259212,1.383409032910783,1764913874.269432,1764913875.391225,False,stay,2.5715911388397217,1764913885.67946,False,1764913883.107869,0.0,False,0.0,True,0.0,0.6651863329259212,0.6651863329259212,1764913885.68533,1.0,False,,1764913803.3076339,1764914001.6492312,198.3415973186493,3.305693288644155
1,5,recognition,lure,False,STIMULI/BIG_OBJECT/Filing_cabinet/Lure_017.jpg,1764913887.726642,False,0.6458333333333334,4.6633970737457275,1764913895.678045,False,1764913895.061762,0.8038386037163744,1.390989595223295,1764913888.7302651,1764913889.832798,True,switch,1.1449098587036133,1764913898.994727,False,1764913897.849817,0.8038386037163744,True,1.0,True,0.35416666666666663,0.1961613962836256,0.15800527038304102,1764913899.001274,0.8038386037163744,False,,1764913803.3076339,1764914001.6492312,198.3415973186493,3.305693288644155
1,6,recognition,studied,True,STIMULI/VEHICLE/Cruise_ship/Image_096.jpg,1764913901.1067798,False,0.0,2.2518739700317383,1764913907.187398,False,1764913906.2591832,0.6403852530536946,2.1185215987997585,1764913902.110066,1764913903.769384,False,stay,1.728667974472046,1764913911.061213,False,1764913909.332544,0.0,False,0.0,True,0.0,0.6403852530536946,0.6403852530536946,1764913911.066287,1.0,False,,1764913803.3076339,1764914001.6492312,198.3415973186493,3.305693288644155
1,7,recognition,lure,False,STIMULI/INSECT/Bug/Lure_054.jpg,1764913913.108267,False,1.0,4.649630069732666,1764913921.028845,False,1764913920.3281841,0.2691857568792485,1.404926594408753,1764913914.108968,1764913915.2216918,False,stay,2.336775064468384,1764913925.511816,False,1764913923.17504,1.0,False,1.0,True,0.0,0.7308142431207515,0.7308142431207515,1764913925.517716,1.0,False,,1764913803.3076339,1764914001.6492312,198.3415973186493,3.305693288644155
1,8,recognition,studied,True,STIMULI/VEGETABLE/Basil/Image_084.jpg,1764913927.618419,False,0.0,4.298357963562012,1764913935.71162,False,1764913933.922405,0.5235889511794558,2.109147801678041,1764913928.618817,1764913930.253011,False,stay,4.288748025894165,1764913942.1780381,False,1764913937.889289,0.0,False,0.0,True,0.0,0.5235889511794558,0.5235889511794558,1764913942.184961,1.0,False,,1764913803.3076339,1764914001.6492312,198.3415973186493,3.305693288644155
1,9,recognition,studied,True,STIMULI/BIG_ANIMAL/Horse/Image_008.jpg,1764913944.237909,False,0.052083333333333356,2.187994956970215,1764913949.810585,False,1764913949.010742,0.46034094529401803,1.5164241724078473,1764913945.238503,1764913946.459937,True,switch,1.9565870761871338,1764913953.910486,False,1764913951.953898,0.46034094529401803,True,0.0,True,0.052083333333333356,0.46034094529401803,0.40825761196068466,1764913953.912221,0.539659054705982,False,,1764913803.3076339,1764914001.6492312,198.3415973186493,3.305693288644155
1,10,recognition,lure,False,STIMULI/FRUIT/Apple/Lure_041.jpg,1764913955.961764,False,0.30145575151466725,7.009351015090942,1764913966.045467,True,1764913960.9592,0.2380480022860849,1.0584355767634899,1764913956.962205,1764913957.851795,False,stay,1.0841758251190186,1764913970.778272,False,1764913969.6940951,0.30145575151466725,False,1.0,False,0.6985442484853328,0.7619519977139151,0.06340774922858236,1764913970.782356,0.3014557515146672,False,,1764913803.3076339,1764914001.6492312,198.3415973186493,3.305693288644155
2,1,recognition,lure,False,STIMULI/BIG_ANIMAL/Walrus/Lure_009.jpg,1764914033.006494,True,1.0,3.844924211502075,1764914037.926392,False,1764914035.626683,0.166851192183935,1.7569547771104719,1764914037.940311,1764914039.3927839,False,stay,5.304566144943237,1764914048.100672,False,1764914042.796104,1.0,False,1.0,True,0.0,0.833148807816065,0.833148807816065,1764914048.104327,1.0,False,,1764914003.469654,1764914270.058044,266.58838987350464,4.443139831225078
2,2,recognition,studied,True,STIMULI/SMALL_ANIMAL/Otter/Image_070.jpg,1764914050.237262,True,0.0,6.749107122421265,1764914058.051716,False,1764914055.7778711,0.73751399436651,1.4827230742189277,1764914058.061713,1764914059.327209,False,stay,2.6325130462646484,1764914065.682225,False,1764914063.049711,0.0,False,0.0,True,0.0,0.73751399436651,0.73751399436651,1764914065.686849,1.0,False,,1764914003.469654,1764914270.058044,266.58838987350464,4.443139831225078
2,3,recognition,studied,True,STIMULI/BIG_OBJECT/Mailbox/Image_019.jpg,1764914068.197647,True,0.0,4.6940929889678955,1764914074.039236,False,1764914073.2975209,0.3048501053114054,1.4209049560056346,1764914074.057846,1764914075.36691,True,stay,2.3584208488464355,1764914081.237131,False,1764914078.878709,0.0,False,0.0,True,0.0,0.3048501053114054,0.3048501053114054,1764914081.24178,1.0,False,,1764914003.469654,1764914270.058044,266.58838987350464,4.443139831225078
2,4,recognition,lure,False,STIMULI/FOOD/Bagel/Lure_031.jpg,1764914083.660939,True,0.18402777777777782,4.963987112045288,1764914089.760231,False,1764914088.396343,0.31887843291111184,1.6054472751670315,1764914089.777882,1764914091.2210848,False,switch,1.0081441402435303,1764914095.7027042,False,1764914094.6945589,0.31887843291111184,True,1.0,False,0.8159722222222222,0.6811215670888882,0.13485065513333402,1764914095.705709,0.8188784329111118,True,1764914097.349059,1764914003.469654,1764914270.058044,266.58838987350464,4.443139831225078
2,5,recognition,studied,True,STIMULI/VEGETABLE/Kale/Image_088.jpg,1764914099.9222422,True,0.9629565298379862,7.00701379776001,1764914108.05366,True,,0.7341327752538787,1.5342509608066215,1764914109.6307268,1764914110.886409,False,stay,6.5343708992004395,1764914120.678675,False,1764914114.144304,0.9629565298379862,False,0.0,False,0.9629565298379862,0.7341327752538787,0.22882375458410753,1764914120.684581,0.037043470162013814,False,,1764914003.469654,1764914270.058044,266.58838987350464,4.443139831225078
2,6,recognition,lure,False,STIMULI/BIRD/Hawk/Lure_025.jpg,1764914122.7330382,True,0.6486777563885067,7.008530139923096,1764914130.794352,True,,0.1235561852268541,1.1246450896966744,1764914132.3931909,1764914133.3070662,False,stay,7.0,1764914143.65863,True,1764914136.6571798,0.6486777563885067,False,1.0,True,0.35132224361149333,0.8764438147731459,0.5251215711616526,1764914145.1729548,0.6486777563885067,False,,1764914003.469654,1764914270.058044,266.58838987350464,4.443139831225078
2,7,recognition,studied,True,STIMULI/FRUIT/Banana/Image_042.jpg,1764914147.611551,True,0.29825910115213966,7.015577077865601,1764914155.6832042,True,,0.6350269579925564,1.7570486982795022,1764914157.25408,1764914158.7905228,False,stay,7.0,1764914169.060575,True,1764914162.0508611,0.29825910115213966,False,0.0,True,0.29825910115213966,0.6350269579925564,0.3367678568404167,1764914170.5763772,0.7017408988478604,False,,1764914003.469654,1764914270.058044,266.58838987350464,4.443139831225078
2,8,recognition,studied,True,STIMULI/SMALL_OBJECT/Blender/Image_073.jpg,1764914172.667451,True,0.9907653477253426,7.029487133026123,1764914180.77551,True,,0.6500050517201958,1.4331548244380297,1764914182.371734,1764914183.605522,False,switch,3.2676658630371094,1764914190.14178,False,1764914186.874114,0.6500050517201958,True,0.0,False,0.9907653477253426,0.6500050517201958,0.3407602960051468,1764914190.148542,0.8499949482798042,True,1764914191.691047,1764914003.469654,1764914270.058044,266.58838987350464,4.443139831225078
2,9,recognition,lure,False,STIMULI/VEHICLE/Bike/Lure_092.jpg,1764914194.2586508,True,0.23246121458413624,7.012941122055054,1764914202.344002,True,1764914200.0954182,0.12022426728014572,1.2567680549561682,1764914203.902097,1764914204.932204,False,switch,1.9247899055480957,1764914210.1276171,False,1764914208.202825,0.12022426728014572,True,1.0,False,0.7675387854158637,0.8797757327198543,0.11223694730399052,1764914210.1406982,0.12022426728014568,False,,1764914003.469654,1764914270.058044,266.58838987350464,4.443139831225078
2,10,recognition,lure,False,STIMULI/INSECT/Fly/Lure_057.jpg,1764914212.185875,True,0.2274166141812346,7.011705160140991,1764914220.247013,True,,0.10885477710460338,1.4552114789910917,1764914221.773453,1764914222.947413,False,switch,7.0,1764914233.2265978,True,1764914226.215095,0.10885477710460338,True,1.0,False,0.7725833858187654,0.8911452228953967,0.11856183707663122,1764914234.741629,0.6088547771046033,True,1764914236.282442,1764914003.469654,1764914270.058044,266.58838987350464,4.443139831225078
3,1,recognition,lure,False,STIMULI/BIG_OBJECT/Chandelier/Lure_014.jpg,1764914305.2001522,True,0.007568314418657041,7.006881237030029,1764914313.412765,True,1764914308.376321,0.15409584370869686,0.5566659388423647,1764914315.0461829,1764914315.73383,False,stay,3.1056528091430664,1764914322.2876039,False,1764914319.181951,0.007568314418657041,False,1.0,False,0.992431685581343,0.8459041562913031,0.14652752929003982,1764914322.292375,0.007568314418657018,False,,1764914273.610625,1764914537.8134441,264.202819108963,4.403380318482717
3,2,recognition,lure,False,STIMULI/FOOD/Ice_cream/Lure_036.jpg,1764914324.476979,True,0.012152777777777804,4.686892986297607,1764914330.316531,False,1764914329.403289,0.17147421818130942,1.5583455440376228,1764914330.3258948,1764914331.6660469,False,switch,0.8996720314025879,1764914336.102613,False,1764914335.20294,0.17147421818130942,True,1.0,False,0.9878472222222222,0.8285257818186906,0.15932144040353163,1764914336.1094458,0.17147421818130937,False,,1764914273.610625,1764914537.8134441,264.202819108963,4.403380318482717
3,3,recognition,studied,True,STIMULI/BIG_ANIMAL/Hippopotamus/Image_007.jpg,1764914338.3097322,True,0.9652777777777778,3.743644952774048,1764914343.1940339,False,1764914342.518071,0.3884537153401198,3.822307377133012,1764914343.2073998,1764914346.357882,True,switch,4.170474052429199,1764914354.0698109,False,1764914349.899335,0.3884537153401198,True,0.0,True,0.9652777777777778,0.3884537153401198,0.5768240624376579,1764914354.079686,1.1115462846598803,True,1764914355.7149282,1764914273.610625,1764914537.8134441,264.202819108963,4.403380318482717
3,4,recognition,studied,True,STIMULI/INSECT/Wasp/Image_060.jpg,1764914358.495044,True,0.0,4.831079959869385,1764914364.48118,False,1764914363.657038,0.6581242724345042,2.2221950616443213,1764914364.538145,1764914366.445838,False,stay,1.9265332221984863,1764914371.8208,False,1764914369.8942668,0.0,False,0.0,True,0.0,0.6581242724345042,0.6581242724345042,1764914371.828448,1.0,False,,1764914273.610625,1764914537.8134441,264.202819108963,4.403380318482717
3,5,recognition,lure,False,STIMULI/VEHICLE/Jetski/Lure_099.jpg,1764914374.052011,True,1.0,4.2604310512542725,1764914379.429583,False,1764914377.0326998,0.06623872762506487,2.313278111874084,1764914379.439649,1764914381.383022,False,switch,4.098484992980957,1764914389.1049988,False,1764914385.0065112,0.06623872762506487,True,1.0,False,0.0,0.9337612723749351,0.9337612723749351,1764914389.1754382,0.5662387276250649,True,1764914391.2282162,1764914273.610625,1764914537.8134441,264.202819108963,4.403380318482717
3,6,recognition,studied,True,STIMULI/BIRD/Duck/Image_022.jpg,1764914394.504228,True,0.006944444444444489,6.3067450523376465,1764914402.283148,False,1764914399.474837,0.7136646093686004,2.6456772778467363,1764914402.4376462,1764914405.684563,False,switch,1.0665059089660645,1764914410.159342,False,1764914409.0928361,0.7136646093686004,True,0.0,False,0.006944444444444489,0.7136646093686004,0.7067201649241559,1764914410.162294,0.7863353906313996,True,1764914411.786676,1764914273.610625,1764914537.8134441,264.202819108963,4.403380318482717
3,7,recognition,studied,True,STIMULI/FRUIT/Strawberry/Image_049.jpg,1764914414.390771,True,0.0,5.670094966888428,1764914421.152642,False,1764914419.9153862,0.693510847444947,2.2853481777335194,1764914421.1898859,1764914423.0903318,False,switch,1.004012107849121,1764914428.004215,False,1764914427.000202,0.693510847444947,True,0.0,False,0.0,0.693510847444947,0.693510847444947,1764914428.018145,0.806489152555053,True,1764914429.7766001,1764914273.610625,1764914537.8134441,264.202819108963,4.403380318482717
3,8,recognition,lure,False,STIMULI/SMALL_OBJECT/Key/Lure_079.jpg,1764914438.60529,True,0.9618055555555556,3.718250036239624,1764914443.612967,False,1764914441.5089211,0.2110307977796941,2.671328126165254,1764914443.6515641,1764914446.0202692,False,stay,2.0192949771881104,1764914451.474109,False,1764914449.454813,0.9618055555555556,False,1.0,True,0.03819444444444442,0.7889692022203059,0.7507747577758614,1764914451.4832242,0.9618055555555556,False,,1764914273.610625,1764914537.8134441,264.202819108963,4.403380318482717
3,9,recognition,studied,True,STIMULI/VEGETABLE/Bok_choy/Image_086.jpg,1764914453.6770911,True,0.1701388888888889,5.472988843917847,1764914460.6303208,False,1764914457.595957,0.4535882705256801,1.664477274259695,1764914460.6974342,1764914462.5754821,True,stay,3.6738476753234863,1764914469.8768058,False,1764914466.202958,0.1701388888888889,False,0.0,True,0.1701388888888889,0.4535882705256801,0.28344938163679123,1764914469.88275,0.8298611111111112,False,,1764914273.610625,1764914537.8134441,264.202819108963,4.403380318482717
3,10,recognition,lure,False,STIMULI/SMALL_ANIMAL/Beaver/Lure_061.jpg,1764914472.125408,True,0.8090277777777778,4.6715028285980225,1764914477.8590798,False,1764914474.923826,0.8236944187342204,2.028648851962105,1764914477.86841,1764914479.4493802,True,stay,1.6778366565704346,1764914484.4061718,False,1764914482.7283351,0.8090277777777778,False,1.0,True,0.1909722222222222,0.17630558126577955,0.014666640956442656,1764914484.412735,0.8090277777777778,False,,1764914273.610625,1764914537.8134441,264.202819108963,4.403380318482717
4,1,recognition,studied,True,STIMULI/FRUIT/Mulberry/Image_045.jpg,1764915443.108458,False,0.0,2.34094500541687,1764915448.657289,False,1764915447.808033,0.5997641481355305,1.279647816685417,1764915444.112124,1764915445.150666,False,stay,4.776077032089233,1764915455.559173,False,1764915450.783096,0.0,False,0.0,True,0.0,0.5997641481355305,0.5997641481355305,1764915455.564393,1.0,False,,1764915413.488422,1764915600.307064,186.81864213943481,3.113644035657247
4,2,recognition,studied,True,STIMULI/VEHICLE/Jeep/Image_098.jpg,1764915457.72507,False,0.3071358285134596,7.0341880321502686,1764915468.525716,True,1764915467.7430148,0.5384332134287009,1.97345649113933,1764915458.727478,1764915460.274019,False,stay,3.3868308067321777,1764915475.708949,False,1764915472.3221161,0.3071358285134596,False,0.0,True,0.3071358285134596,0.5384332134287009,0.23129738491524127,1764915475.7162108,0.6928641714865404,False,,1764915413.488422,1764915600.307064,186.81864213943481,3.113644035657247
4,3,recognition,studied,True,STIMULI/VEGETABLE/Squash/Image_090.jpg,1764915477.813743,False,0.0,2.8909010887145996,1764915484.2417321,False,1764915483.1762471,0.31821465779311725,1.6662407642707058,1764915478.819701,1764915480.17095,True,stay,1.923612117767334,1764915488.341731,False,1764915486.418119,0.0,False,0.0,True,0.0,0.31821465779311725,0.31821465779311725,1764915488.347605,1.0,False,,1764915413.488422,1764915600.307064,186.81864213943481,3.113644035657247
4,4,recognition,lure,False,STIMULI/SMALL_ANIMAL/Koala/Lure_067.jpg,1764915490.44941,False,0.0,4.320178985595703,1764915498.0421839,False,1764915497.1090891,0.10965167587451918,1.2005410590015564,1764915491.4644768,1764915492.519609,False,switch,1.8970580101013184,1764915502.109431,False,1764915500.212372,0.10965167587451918,True,1.0,False,1.0,0.8903483241254808,0.10965167587451918,1764915502.114815,0.6096516758745192,True,1764915503.693585,1764915413.488422,1764915600.307064,186.81864213943481,3.113644035657247
4,5,recognition,lure,False,STIMULI/FOOD/Pizza/Lure_039.jpg,1764915506.700345,False,1.0,6.016769170761108,1764915516.1261141,False,1764915511.940918,0.1358343760436833,1.5610124190520058,1764915507.704492,1764915508.937054,False,stay,3.570509195327759,1764915521.872808,False,1764915518.302298,1.0,False,1.0,True,0.0,0.8641656239563167,0.8641656239563167,1764915521.874732,1.0,False,,1764915413.488422,1764915600.307064,186.81864213943481,3.113644035657247
4,6,recognition,studied,True,STIMULI/SMALL_OBJECT/Globe/Image_078.jpg,1764915523.923171,False,0.0,3.6514880657196045,1764915531.7910259,False,1764915530.8792949,0.5242184369789431,2.597661613471765,1764915524.938559,1764915526.969667,False,stay,2.4562251567840576,1764915536.4098291,False,1764915533.953603,0.0,False,0.0,True,0.0,0.5242184369789431,0.5242184369789431,1764915536.414676,1.0,False,,1764915413.488422,1764915600.307064,186.81864213943481,3.113644035657247
4,7,recognition,lure,False,STIMULI/BIG_ANIMAL/Alligator/Lure_001.jpg,1764915538.473623,False,0.0,3.103717088699341,1764915544.923745,False,1764915543.4411361,0.8476178612961207,1.4385945208322597,1764915539.4740212,1764915540.648106,True,stay,1.057706594467163,1764915548.1102238,False,1764915547.0525172,0.0,False,1.0,False,1.0,0.1523821387038793,0.8476178612961207,1764915548.110959,0.0,False,,1764915413.488422,1764915600.307064,186.81864213943481,3.113644035657247
4,8,recognition,studied,True,STIMULI/BIG_OBJECT/Barrel/Image_011.jpg,1764915550.1627169,False,0.0,4.324405193328857,1764915557.97368,False,1764915556.573823,0.28575851882722403,1.689229909403964,1764915551.1630971,1764915552.488935,True,switch,0.9993031024932861,1764915561.121444,False,1764915560.122141,0.28575851882722403,True,0.0,True,0.0,0.28575851882722403,0.28575851882722403,1764915561.122868,1.214241481172776,True,1764915562.648895,1764915413.488422,1764915600.307064,186.81864213943481,3.113644035657247
4,9,recognition,lure,False,STIMULI/BIRD/Goose/Lure_024.jpg,1764915565.193642,False,0.8524305555555556,2.614992141723633,1764915571.355267,False,1764915569.8558981,0.8029129326579423,1.7383109549603837,1764915566.194082,1764915567.5810509,True,switch,1.478132963180542,1764915574.9800909,False,1764915573.5019572,0.8029129326579423,True,1.0,True,0.14756944444444442,0.19708706734205772,0.0495176228976133,1764915574.981376,0.8029129326579423,False,,1764915413.488422,1764915600.307064,186.81864213943481,3.113644035657247
4,10,recognition,lure,False,STIMULI/INSECT/Butterfly/Lure_055.jpg,1764915577.0481238,False,0.40972222222222227,5.158606767654419,1764915585.913725,False,1764915585.3396852,0.09636987521196114,1.9905162337633437,1764915578.051446,1764915579.592011,False,switch,1.2512030601501465,1764915589.324984,False,1764915588.0737789,0.09636987521196114,True,1.0,False,0.5902777777777777,0.9036301247880388,0.31335234701026116,1764915589.3321059,0.5963698752119612,True,1764915590.8666408,1764915413.488422,1764915600.307064,186.81864213943481,3.113644035657247
5,1,recognition,lure,False,STIMULI/SMALL_ANIMAL/Monkey/Lure_068.jpg,1764915631.045436,False,1.0,3.1119091510772705,1764915637.875755,False,1764915636.881609,0.9040924718502688,1.9915574189043848,1764915632.0483992,1764915633.589268,True,switch,3.183109998703003,1764915643.186878,False,1764915640.003767,0.9040924718502688,True,1.0,True,0.0,0.09590752814973125,0.09590752814973125,1764915643.188858,0.9040924718502688,False,,1764915602.5164192,1764915777.9771898,175.46077060699463,2.924346176783244
5,2,recognition,lure,False,STIMULI/BIG_OBJECT/Chair/Lure_013.jpg,1764915645.251063,False,0.4965277777777778,3.840742826461792,1764915652.789363,False,1764915652.7893498,0.9695000570431795,1.9735996935053313,1764915646.251612,1764915647.790899,True,switch,2.3085148334503174,1764915657.2241669,False,1764915654.915652,0.9695000570431795,True,1.0,True,0.5034722222222222,0.03049994295682046,0.47297227926540175,1764915657.230979,0.9695000570431795,False,,1764915602.5164192,1764915777.9771898,175.46077060699463,2.924346176783244
5,3,recognition,lure,False,STIMULI/VEHICLE/Boat/Lure_093.jpg,1764915659.3083332,False,0.3177083333333333,3.0384321212768555,1764915665.725107,False,1764915664.9926422,0.8428075349267171,1.5149273867153252,1764915660.308644,1764915661.529172,True,switch,0.7554960250854492,1764915668.690699,False,1764915667.935203,0.8428075349267171,True,1.0,True,0.6822916666666667,0.15719246507328288,0.5250992015933837,1764915668.69729,1.3428075349267172,True,1764915670.2230568,1764915602.5164192,1764915777.9771898,175.46077060699463,2.924346176783244
5,4,recognition,lure,False,STIMULI/BIRD/Peacock/Lure_029.jpg,1764915672.7631779,False,0.3854166666666667,3.010369062423706,1764915679.129128,False,1764915678.240432,0.7431001258535492,1.462733915121563,1764915673.7640169,1764915674.952544,True,switch,1.4294850826263428,1764915682.724857,False,1764915681.295372,0.7431001258535492,True,1.0,True,0.6145833333333333,0.25689987414645077,0.35768345918688255,1764915682.7279282,1.2431001258535492,True,1764915684.256067,1764915602.5164192,1764915777.9771898,175.46077060699463,2.924346176783244
5,5,recognition,studied,True,STIMULI/SMALL_OBJECT/Envelope/Image_075.jpg,1764915687.0409658,False,0.0,2.932573080062866,1764915692.925086,False,1764915692.036255,0.2840025729558049,0.946858125879009,1764915688.041365,1764915688.823036,True,switch,0.7419230937957764,1764915695.85745,False,1764915695.115527,0.2840025729558049,True,0.0,True,0.0,0.2840025729558049,0.2840025729558049,1764915695.864104,0.7159974270441951,False,,1764915602.5164192,1764915777.9771898,175.46077060699463,2.924346176783244
5,6,recognition,studied,True,STIMULI/VEGETABLE/Arugula/Image_081.jpg,1764915697.920745,False,0.0,4.325465202331543,1764915705.707277,False,1764915702.6259022,0.3702894200889639,1.5779332229926972,1764915698.9210958,1764915700.2170932,True,stay,4.660237073898315,1764915712.49068,False,1764915707.830443,0.0,False,0.0,True,0.0,0.3702894200889639,0.3702894200889639,1764915712.497505,1.0,False,,1764915602.5164192,1764915777.9771898,175.46077060699463,2.924346176783244
5,7,recognition,studied,True,STIMULI/FRUIT/Watermelon/Image_050.jpg,1764915714.546377,False,0.0,4.009182929992676,1764915721.789525,False,1764915720.258641,0.4025836309086988,1.293111853361318,1764915715.5467541,1764915716.614573,True,stay,1.4813499450683594,1764915725.3885388,False,1764915723.907188,0.0,False,0.0,True,0.0,0.4025836309086988,0.4025836309086988,1764915725.390086,1.0,False,,1764915602.5164192,1764915777.9771898,175.46077060699463,2.924346176783244
5,8,recognition,studied,True,STIMULI/BIG_ANIMAL/Cheetah/Image_004.jpg,1764915727.431456,False,0.8854166666666666,3.976984739303589,1764915734.8726568,False,1764915733.990172,0.6285992256718709,1.5830275994286813,1764915728.431773,1764915729.7326112,False,switch,0.790534257888794,1764915737.792334,False,1764915737.0017998,0.6285992256718709,True,0.0,False,0.8854166666666666,0.6285992256718709,0.25681744099479575,1764915737.7969122,0.8714007743281291,True,1764915739.325147,1764915602.5164192,1764915777.9771898,175.46077060699463,2.924346176783244
5,9,recognition,studied,True,STIMULI/INSECT/Ants/Image_051.jpg,1764915741.863828,False,0.0,4.180588006973267,1764915749.272727,False,1764915748.3077812,0.28059468291160045,1.3390455315131238,1764915742.864172,1764915743.933352,True,stay,1.3556718826293945,1764915752.748715,False,1764915751.393043,0.0,False,0.0,True,0.0,0.28059468291160045,0.28059468291160045,1764915752.7559721,1.0,False,,1764915602.5164192,1764915777.9771898,175.46077060699463,2.924346176783244
5,10,recognition,lure,False,STIMULI/FOOD/Pie/Lure_038.jpg,1764915754.807605,False,0.11979166666666673,3.192448139190674,1764915761.348041,False,1764915760.4903512,1.0,1.4682602045010393,1764915755.807986,1764915756.989044,True,stay,1.9299449920654297,1764915765.405418,False,1764915763.475472,0.11979166666666673,False,1.0,False,0.8802083333333333,0.0,0.8802083333333333,1764915765.408221,0.11979166666666674,False,,1764915602.5164192,1764915777.9771898,175.46077060699463,2.924346176783244
6,1,recognition,studied,True,STIMULI/SMALL_ANIMAL/Groundhog/Image_065.jpg,1764915811.422337,False,0.7848922192394054,7.01670503616333,1764915822.408724,True,,0.45918209373444047,2.240742537376796,1764915812.424574,1764915814.220905,True,switch,7.0,1764915833.204705,True,1764915826.173453,0.45918209373444047,True,0.0,True,0.7848922192394054,0.45918209373444047,0.325710125504965,1764915834.718034,0.5408179062655596,False,,1764915782.596747,1764916042.916814,260.3200671672821,4.338667786121368
6,2,recognition,lure,False,STIMULI/VEGETABLE/Asparagus/Lure_082.jpg,1764915836.894214,False,0.6238964494731505,7.008234024047852,1764915848.125932,True,,0.07298873056816933,2.6150944989751035,1764915837.8974452,1764915839.945179,False,stay,3.500822067260742,1764915855.283167,False,1764915851.782343,0.6238964494731505,False,1.0,True,0.3761035505268495,0.9270112694318307,0.5509077189049811,1764915855.285238,0.6238964494731505,False,,1764915782.596747,1764916042.916814,260.3200671672821,4.338667786121368
6,3,recognition,lure,False,STIMULI/BIG_OBJECT/Couch/Lure_016.jpg,1764915857.343703,False,0.39528286106400656,7.003004312515259,1764915867.3548942,True,,0.8845216106010176,1.050651676369539,1764915858.3466601,1764915859.1890829,True,stay,2.9505462646484375,1764915873.9397068,False,1764915870.9891598,0.39528286106400656,False,1.0,False,0.6047171389359934,0.11547838939898236,0.4892387495370111,1764915873.9453518,0.39528286106400656,False,,1764915782.596747,1764916042.916814,260.3200671672821,4.338667786121368
6,4,recognition,lure,False,STIMULI/FRUIT/Pineapple/Lure_048.jpg,1764915875.9931252,False,0.6007659575318391,7.004287958145142,1764915886.921578,True,,0.7704935081413085,2.216182257382124,1764915876.993588,1764915878.754719,True,stay,2.7279298305511475,1764915893.3051069,False,1764915890.577176,0.6007659575318391,False,1.0,True,0.39923404246816085,0.22950649185869154,0.1697275506094693,1764915893.3114722,0.6007659575318391,False,,1764915782.596747,1764916042.916814,260.3200671672821,4.338667786121368
6,5,recognition,studied,True,STIMULI/SMALL_OBJECT/Balloon/Image_071.jpg,1764915895.361492,False,0.0422977570452932,7.002126932144165,1764915905.2713869,True,,0.23201052272806652,0.888408587512414,1764915896.361867,1764915897.1001139,True,switch,7.0,1764915915.922252,True,1764915908.9056692,0.23201052272806652,True,0.0,True,0.0422977570452932,0.23201052272806652,0.18971276568277332,1764915917.438561,0.7679894772719335,False,,1764915782.596747,1764916042.916814,260.3200671672821,4.338667786121368
6,6,recognition,lure,False,STIMULI/FOOD/Soup/Lure_040.jpg,1764915919.501159,False,0.7752086509047837,7.009227991104126,1764915930.455603,True,,0.8178269046763618,2.2473569811322487,1764915920.504808,1764915922.282965,True,stay,2.323843002319336,1764915936.454649,False,1764915934.130806,0.7752086509047837,False,1.0,True,0.22479134909521625,0.18217309532363823,0.04261825377157802,1764915936.459459,0.7752086509047837,False,,1764915782.596747,1764916042.916814,260.3200671672821,4.338667786121368
6,7,recognition,studied,True,STIMULI/VEHICLE/Airplane/Image_091.jpg,1764915938.493057,False,0.869031035485065,7.004701137542725,1764915949.20492,True,,0.26606302613133165,1.975752437904769,1764915939.4932978,1764915941.030775,True,stay,7.0,1764915959.8545809,True,1764915952.844009,0.869031035485065,False,0.0,False,0.869031035485065,0.26606302613133165,0.6029680093537333,1764915961.366063,0.130968964514935,False,,1764915782.596747,1764916042.916814,260.3200671672821,4.338667786121368
6,8,recognition,lure,False,STIMULI/BIG_ANIMAL/Giraffe/Lure_006.jpg,1764915963.538228,False,0.835606861207511,7.001408815383911,1764915974.3872309,True,,0.751038001777069,2.1063145715495755,1764915964.5385768,1764915966.185791,True,switch,7.0,1764915985.0703812,True,1764915978.068458,0.751038001777069,True,1.0,True,0.16439313879248896,0.24896199822293097,0.08456885943044201,1764915986.5992699,0.751038001777069,False,,1764915782.596747,1764916042.916814,260.3200671672821,4.338667786121368
6,9,recognition,studied,True,STIMULI/BIRD/Hummingbird/Image_026.jpg,1764915988.661278,False,0.15121883268691627,7.015893936157227,1764915999.0866401,True,,0.2163099656571986,1.5374359228728625,1764915989.6639822,1764915990.8983622,True,stay,6.567420959472656,1764916009.333979,False,1764916002.766558,0.15121883268691627,False,0.0,True,0.15121883268691627,0.2163099656571986,0.06509113297028232,1764916009.336011,0.8487811673130837,False,,1764915782.596747,1764916042.916814,260.3200671672821,4.338667786121368
6,10,recognition,studied,True,STIMULI/INSECT/Moth/Image_059.jpg,1764916011.387084,False,0.0854917572096201,7.012463092803955,1764916023.020163,True,,0.36251359429081814,3.1031300276482296,1764916012.389874,1764916014.815468,True,stay,1.8363280296325684,1764916028.503654,False,1764916026.667326,0.0854917572096201,False,0.0,True,0.0854917572096201,0.36251359429081814,0.27702183708119804,1764916028.509268,0.9145082427903799,False,,1764915782.596747,1764916042.916814,260.3200671672821,4.338667786121368
7,1,recognition,lure,False,STIMULI/VEHICLE/Car/Lure_095.jpg,1764916132.915025,True,0.9062500000000001,4.666310787200928,1764916138.652253,False,1764916137.9021802,0.8940566677971529,1.3380513217756025,1764916138.660596,1764916139.724085,True,stay,2.7900989055633545,1764916145.770463,False,1764916142.980364,0.9062500000000001,False,1.0,True,0.09374999999999989,0.10594333220284713,0.01219333220284724,1764916145.776491,0.9062500000000001,False,,1764916102.433291,1764916300.100811,197.66752004623413,3.2944586674372354
7,2,recognition,lure,False,STIMULI/BIRD/Owl/Lure_027.jpg,1764916147.819026,True,0.7285961740735785,7.000881910324097,1764916155.8685188,True,1764916155.185799,0.8315786006050125,1.8657453414377856,1764916157.41259,1764916158.92942,True,switch,1.8909907341003418,1764916164.085151,False,1764916162.1941602,0.8315786006050125,True,1.0,True,0.27140382592642154,0.16842139939498746,0.10298242653143408,1764916164.087164,0.8315786006050125,False,,1764916102.433291,1764916300.100811,197.66752004623413,3.2944586674372354
7,3,recognition,lure,False,STIMULI/VEGETABLE/Avocado/Lure_083.jpg,1764916166.143678,True,0.2673611111111111,2.890960931777954,1764916170.086886,False,1764916169.284157,0.7512337607654163,1.3722927329292538,1764916170.096118,1764916171.193983,True,switch,1.0877630710601807,1764916175.585331,False,1764916174.497568,0.7512337607654163,True,1.0,True,0.7326388888888888,0.24876623923458374,0.48387264965430515,1764916175.586787,0.7512337607654163,False,,1764916102.433291,1764916300.100811,197.66752004623413,3.2944586674372354
7,4,recognition,lure,False,STIMULI/SMALL_ANIMAL/Dog/Lure_063.jpg,1764916177.6296582,True,0.3402777777777778,2.482353925704956,1764916181.154508,False,1764916180.193472,0.006755767262768275,1.7584768019674364,1764916181.1628559,1764916182.5470028,False,stay,1.8001480102539062,1764916187.6353312,False,1764916185.8351822,0.3402777777777778,False,1.0,False,0.6597222222222222,0.9932442327372317,0.3335220105150095,1764916187.636844,0.3402777777777778,False,,1764916102.433291,1764916300.100811,197.66752004623413,3.2944586674372354
7,5,recognition,studied,True,STIMULI/FOOD/Burrito/Image_032.jpg,1764916189.709013,True,0.7604166666666667,3.838395118713379,1764916194.6016371,False,1764916193.8535218,0.5631869658759219,1.4317617310976432,1764916194.603798,1764916195.778413,False,stay,2.1343319416046143,1764916201.203563,False,1764916199.069231,0.7604166666666667,False,0.0,False,0.7604166666666667,0.5631869658759219,0.19722970079074487,1764916201.207863,0.23958333333333326,False,,1764916102.433291,1764916300.100811,197.66752004623413,3.2944586674372354
7,6,recognition,studied,True,STIMULI/BIG_OBJECT/Coat_rack/Image_015.jpg,1764916203.259972,True,0.09060396329242196,7.000782012939453,1764916211.319123,True,,0.8174749501496434,2.2149886659478044,1764916212.848017,1764916214.600468,False,switch,7.0,1764916224.845654,True,1764916217.8378692,0.8174749501496434,True,0.0,False,0.09060396329242196,0.8174749501496434,0.7268709868572215,1764916226.379862,0.18252504985035656,False,,1764916102.433291,1764916300.100811,197.66752004623413,3.2944586674372354
7,7,recognition,studied,True,STIMULI/FRUIT/Orange/Image_046.jpg,1764916228.443703,True,0.4149305555555556,2.6939311027526855,1764916232.192807,False,1764916231.4033659,0.2510015653419332,1.439601887668869,1764916232.198355,1764916233.3647869,True,stay,4.911362171173096,1764916241.542419,False,1764916236.6310568,0.4149305555555556,False,0.0,True,0.4149305555555556,0.2510015653419332,0.1639289902136224,1764916241.544826,0.5850694444444444,False,,1764916102.433291,1764916300.100811,197.66752004623413,3.2944586674372354
7,8,recognition,studied,True,STIMULI/BIG_ANIMAL/Elephant/Image_005.jpg,1764916243.605929,True,0.657986111111111,2.8752729892730713,1764916247.5356328,False,1764916246.635814,0.3058122158324206,1.7528792606420578,1764916247.539725,1764916248.934178,True,switch,5.675040006637573,1764916257.897717,False,1764916252.222676,0.3058122158324206,True,0.0,True,0.657986111111111,0.3058122158324206,0.3521738952786905,1764916257.9007082,0.6941877841675794,False,,1764916102.433291,1764916300.100811,197.66752004623413,3.2944586674372354
7,9,recognition,lure,False,STIMULI/SMALL_OBJECT/Basket/Lure_072.jpg,1764916260.2456021,True,0.7187499999999999,3.597933053970337,1764916264.8925362,False,1764916263.850191,0.8564626206964334,2.7176159174444483,1764916264.89987,1764916267.1398542,True,stay,1.2271239757537842,1764916271.6864781,False,1764916270.459353,0.7187499999999999,False,1.0,True,0.2812500000000001,0.14353737930356658,0.13771262069643353,1764916271.6916459,0.7187499999999999,False,,1764916102.433291,1764916300.100811,197.66752004623413,3.2944586674372354
7,10,recognition,studied,True,STIMULI/INSECT/Mosquito/Image_058.jpg,1764916273.762882,True,0.7986111111111112,5.022226095199585,1764916279.83434,False,1764916277.767172,0.6536654258176622,3.4079108526425226,1764916279.84448,1764916282.4784472,False,switch,5.213982820510864,1764916290.952569,False,1764916285.7385862,0.6536654258176622,True,0.0,False,0.7986111111111112,0.6536654258176622,0.14494568529344898,1764916290.9584,0.8463345741823378,True,1764916292.502259,1764916102.433291,1764916300.100811,197.66752004623413,3.2944586674372354
8,1,recognition,lure,False,STIMULI/FOOD/Pasta/Lure_037.jpg,1764916332.049736,True,0.4895833333333333,5.993350982666016,1764916339.090718,False,1764916339.090689,0.18479625626630986,1.3074223172796928,1764916339.109428,1764916340.230586,False,switch,1.0817251205444336,1764916344.583024,False,1764916343.501298,0.18479625626630986,True,1.0,False,0.5104166666666667,0.8152037437336901,0.30478707706702346,1764916344.5919201,0.6847962562663099,True,1764916346.126166,1764916303.5384161,1764916574.8832252,271.34480905532837,4.522413484255472
8,2,recognition,lure,False,STIMULI/BIG_ANIMAL/Camel/Lure_003.jpg,1764916348.677147,True,0.6666666666666666,2.4533729553222656,1764916352.182694,False,1764916351.3845708,0.8876404118765331,2.17912605164378,1764916352.1869261,1764916353.890434,True,switch,7.0,1764916364.1789272,True,1764916357.155188,0.8876404118765331,True,1.0,True,0.33333333333333337,0.11235958812346691,0.22097374520986646,1764916365.697498,1.387640411876533,True,1764916367.229441,1764916303.5384161,1764916574.8832252,271.34480905532837,4.522413484255472
8,3,recognition,lure,False,STIMULI/SMALL_OBJECT/Lamp/Lure_080.jpg,1764916369.7985852,True,0.2588637278625151,7.010689735412598,1764916377.8569448,True,,0.12099603629067975,1.7905143767064404,1764916379.4197571,1764916380.908073,False,stay,7.0,1764916391.167776,True,1764916384.1663911,0.2588637278625151,False,1.0,False,0.7411362721374849,0.8790039637093202,0.13786769157183537,1764916392.683702,0.2588637278625151,False,,1764916303.5384161,1764916574.8832252,271.34480905532837,4.522413484255472
8,4,recognition,lure,False,STIMULI/BIG_OBJECT/Hot_tub/Lure_018.jpg,1764916394.7390022,True,0.8137455298264538,7.008055686950684,1764916402.7990038,True,,0.13770564799124416,1.6736241006062063,1764916404.344123,1764916405.770894,False,switch,7.0,1764916416.0172002,True,1764916409.0129018,0.13770564799124416,True,1.0,False,0.18625447017354624,0.8622943520087558,0.6760398818352096,1764916417.535938,0.13770564799124418,False,,1764916303.5384161,1764916574.8832252,271.34480905532837,4.522413484255472
8,5,recognition,studied,True,STIMULI/INSECT/Bee/Image_052.jpg,1764916421.870775,True,0.6017440173190487,7.010931968688965,1764916429.987299,True,,0.2664037373074273,1.4240618190282053,1764916431.5327091,1764916432.642854,True,stay,2.2811670303344727,1764916438.652353,False,1764916436.3711848,0.6017440173190487,False,0.0,False,0.6017440173190487,0.2664037373074273,0.3353402800116214,1764916438.6567822,0.3982559826809513,False,,1764916303.5384161,1764916574.8832252,271.34480905532837,4.522413484255472
8,6,recognition,studied,True,STIMULI/FRUIT/Coconut/Image_044.jpg,1764916442.6967628,True,0.7919112539787805,7.006383895874023,1764916450.749147,True,,0.6844332579124567,1.6010214395287938,1764916452.278877,1764916453.557886,False,switch,1.5979619026184082,1764916458.384175,False,1764916456.7862132,0.6844332579124567,True,0.0,False,0.7919112539787805,0.6844332579124567,0.1074779960663238,1764916458.389794,0.8155667420875433,True,1764916459.9139829,1764916303.5384161,1764916574.8832252,271.34480905532837,4.522413484255472
8,7,recognition,lure,False,STIMULI/VEGETABLE/Carrot/Lure_087.jpg,1764916464.833838,True,0.869603157866651,7.008625030517578,1764916472.902278,True,,0.2848846250411349,2.856824867823927,1764916474.4889119,1764916476.8176441,False,stay,3.2850561141967773,1764916483.366357,False,1764916480.081301,0.869603157866651,False,1.0,True,0.130396842133349,0.7151153749588651,0.5847185328255161,1764916483.368108,0.869603157866651,False,,1764916303.5384161,1764916574.8832252,271.34480905532837,4.522413484255472
8,8,recognition,studied,True,STIMULI/SMALL_ANIMAL/Mouse/Image_069.jpg,1764916488.5496,True,0.0602160445182947,7.001022100448608,1764916496.600744,True,,0.6751854471825334,1.7893592917856287,1764916498.1262138,1764916499.543267,False,stay,1.912282943725586,1764916504.683127,False,1764916502.7708428,0.0602160445182947,False,0.0,True,0.0602160445182947,0.6751854471825334,0.6149694026642387,1764916504.686902,0.9397839554817053,False,,1764916303.5384161,1764916574.8832252,271.34480905532837,4.522413484255472
8,9,recognition,studied,True,STIMULI/BIRD/Penguin/Image_030.jpg,1764916508.344235,True,0.33539634473100677,7.007414102554321,1764916516.417313,True,,0.6345623572531847,1.9691164659209461,1764916517.943264,1764916519.473382,False,switch,1.9845149517059326,1764916524.715307,False,1764916522.730792,0.6345623572531847,True,0.0,False,0.33539634473100677,0.6345623572531847,0.2991660125221779,1764916524.717508,0.8654376427468153,True,1764916526.2433338,1764916303.5384161,1764916574.8832252,271.34480905532837,4.522413484255472
8,10,recognition,studied,True,STIMULI/VEHICLE/Helicopter/Image_097.jpg,1764916529.822689,True,0.8471552002220666,7.006577014923096,1764916537.881731,True,,0.7756904711290458,1.2811629047673212,1764916539.4339972,1764916540.5386481,False,switch,2.623610019683838,1764916546.482584,False,1764916543.858973,0.7756904711290458,True,0.0,False,0.8471552002220666,0.7756904711290458,0.07146472909302082,1764916546.488364,0.7243095288709542,True,1764916548.014233,1764916303.5384161,1764916574.8832252,271.34480905532837,4.522413484255472
9,1,recognition,lure,False,STIMULI/FRUIT/Blueberry/Lure_043.jpg,1764916723.8405051,False,1.0,4.560519218444824,1764916732.146969,False,1764916730.617886,0.794311940664666,1.934444138561217,1764916724.844917,1764916726.409247,True,switch,3.9494400024414062,1764916738.282869,False,1764916734.333429,0.794311940664666,True,1.0,True,0.0,0.20568805933533396,0.20568805933533396,1764916738.2890828,1.2943119406646661,True,1764916739.823453,1764916684.410031,1764916911.989014,227.5789828300476,3.79298304716746
9,2,recognition,studied,True,STIMULI/FOOD/Cake/Image_033.jpg,1764916742.3623118,False,0.685763888888889,4.6848931312561035,1764916750.48155,False,1764916748.997967,0.33525377087099156,1.5741663080653647,1764916743.364563,1764916744.635211,True,switch,1.0776751041412354,1764916753.698514,False,1764916752.6208389,0.33525377087099156,True,0.0,True,0.685763888888889,0.33525377087099156,0.3505101180178974,1764916753.704211,1.1647462291290085,True,1764916755.2316601,1764916684.410031,1764916911.989014,227.5789828300476,3.79298304716746
9,3,recognition,studied,True,STIMULI/BIG_OBJECT/Phonebooth/Image_020.jpg,1764916757.773936,False,0.0,4.017374753952026,1764916765.296814,False,1764916764.24048,0.4183840093222499,1.6683859012965436,1764916758.77427,1764916760.11312,True,stay,3.5428249835968018,1764916771.19773,False,1764916767.6549041,0.0,False,0.0,True,0.0,0.4183840093222499,0.4183840093222499,1764916771.20845,1.0,False,,1764916684.410031,1764916911.989014,227.5789828300476,3.79298304716746
9,4,recognition,lure,False,STIMULI/BIG_ANIMAL/Alpaca/Lure_002.jpg,1764916776.344769,False,0.8813607036777918,7.004015207290649,1764916786.863845,True,,0.838795288975843,1.7002030543783984,1764916777.350188,1764916778.6808739,True,stay,4.330226898193359,1764916794.8774369,False,1764916790.54721,0.8813607036777918,False,1.0,True,0.11863929632220815,0.161204711024157,0.042565414701948856,1764916794.884811,0.8813607036777918,False,,1764916684.410031,1764916911.989014,227.5789828300476,3.79298304716746
9,5,recognition,studied,True,STIMULI/VEHICLE/Van/Image_100.jpg,1764916796.962556,False,0.2152777777777778,4.996474027633667,1764916806.630367,False,1764916803.9320772,0.3971955040102515,3.1728165744203536,1764916797.965027,1764916800.41774,True,switch,3.7294461727142334,1764916812.5146902,False,1764916808.785244,0.3971955040102515,True,0.0,True,0.2152777777777778,0.3971955040102515,0.1819177262324737,1764916812.5204082,1.1028044959897485,True,1764916814.05492,1764916684.410031,1764916911.989014,227.5789828300476,3.79298304716746
9,6,recognition,lure,False,STIMULI/SMALL_OBJECT/Glasses/Lure_077.jpg,1764916818.29053,False,0.28125,4.350580930709839,1764916826.1365278,False,1764916824.054027,0.7448312245056746,1.6482512997256786,1764916819.292922,1764916820.61838,True,stay,2.853145122528076,1764916831.198147,False,1764916828.345002,0.28125,False,1.0,False,0.71875,0.2551687754943254,0.4635812245056746,1764916831.206013,0.28125,False,,1764916684.410031,1764916911.989014,227.5789828300476,3.79298304716746
9,7,recognition,studied,True,STIMULI/SMALL_ANIMAL/Cat/Image_062.jpg,1764916833.258879,False,0.0,5.673474073410034,1764916842.485325,False,1764916838.745332,0.3114601479960713,1.781367517945387,1764916834.259139,1764916835.6538901,True,stay,2.001920700073242,1764916846.6135528,False,1764916844.611632,0.0,False,0.0,True,0.0,0.3114601479960713,0.3114601479960713,1764916846.62078,1.0,False,,1764916684.410031,1764916911.989014,227.5789828300476,3.79298304716746
9,8,recognition,lure,False,STIMULI/BIRD/Flamingo/Lure_023.jpg,1764916849.858413,False,0.14930555555555558,4.176177978515625,1764916857.429586,False,1764916855.8462029,0.8396674548264949,1.438645679880778,1764916850.859023,1764916852.0674932,True,switch,2.499951124191284,1764916862.064416,False,1764916859.564464,0.8396674548264949,True,1.0,True,0.8506944444444444,0.16033254517350515,0.6903618992709393,1764916862.070962,1.3396674548264949,True,1764916863.5991192,1764916684.410031,1764916911.989014,227.5789828300476,3.79298304716746
9,9,recognition,studied,True,STIMULI/INSECT/Beetle/Image_053.jpg,1764916866.247465,False,0.2743055555555556,3.450446844100952,1764916873.696979,False,1764916872.762589,0.36992929775305505,2.3237589488918853,1764916867.2477949,1764916869.060284,True,switch,2.022339105606079,1764916877.8661702,False,1764916875.843831,0.36992929775305505,True,0.0,True,0.2743055555555556,0.36992929775305505,0.09562374219749947,1764916877.872403,0.630070702246945,False,,1764916684.410031,1764916911.989014,227.5789828300476,3.79298304716746
9,10,recognition,lure,False,STIMULI/VEGETABLE/Pepper/Lure_089.jpg,1764916881.160268,False,0.4375,1.8048698902130127,1764916887.012136,False,1764916886.363476,0.053391071002222575,2.297435665849116,1764916882.1608021,1764916883.974893,False,switch,3.5589942932128906,1764916892.7115571,False,1764916889.1525629,0.053391071002222575,True,1.0,False,0.5625,0.9466089289977774,0.38410892899777743,1764916892.714981,0.5533910710022226,True,1764916894.248887,1764916684.410031,1764916911.989014,227.5789828300476,3.79298304716746
10,1,recognition,studied,True,STIMULI/VEHICLE/Bus/Image_094.jpg,1764917138.600194,True,0.7732962095216401,7.009602069854736,1764917146.744724,True,,0.3397160677510554,0.7834097931765418,1764917148.2769952,1764917148.902207,True,switch,7.0,1764917159.146123,True,1764917152.1453571,0.3397160677510554,True,0.0,True,0.7732962095216401,0.3397160677510554,0.43358014177058474,1764917160.665117,1.1602839322489447,True,1764917162.197749,1764916918.1982589,1764917622.047284,703.8490250110626,11.73081708351771
10,2,recognition,lure,False,STIMULI/BIRD/Chicken/Lure_021.jpg,1764917168.964733,True,0.16844946442625264,7.00617790222168,1764917177.029718,True,,0.7652134865971671,3.7650205721670313,1764917178.564468,1764917181.435333,True,switch,7.0,1764917191.696177,True,1764917184.693246,0.7652134865971671,True,1.0,True,0.8315505355737474,0.23478651340283285,0.5967640221709145,1764917193.225395,1.2652134865971671,True,1764917194.7566988,1764916918.1982589,1764917622.047284,703.8490250110626,11.73081708351771
10,3,recognition,studied,True,STIMULI/FRUIT/Peach/Image_047.jpg,1764917197.318614,True,0.1254508554184413,7.005645990371704,1764917205.392874,True,,0.37015913890172686,1.5441111780246815,1764917206.926838,1764917208.176608,True,stay,7.0,1764917218.432508,True,1764917211.4213388,0.1254508554184413,False,0.0,True,0.1254508554184413,0.37015913890172686,0.24470828348328555,1764917219.943378,0.8745491445815587,False,,1764916918.1982589,1764917622.047284,703.8490250110626,11.73081708351771
10,4,recognition,lure,False,STIMULI/VEGETABLE/Bean/Lure_085.jpg,1764917223.992032,True,0.2631292783538243,7.006779909133911,1764917232.044652,True,,0.0,1.6999111166866732,1764917233.5728698,1764917234.8942761,False,switch,7.0,1764917245.127629,True,1764917238.1263008,0.0,True,1.0,False,0.7368707216461756,1.0,0.2631292783538243,1764917246.6545768,0.5,True,1764917248.2267761,1764916918.1982589,1764917622.047284,703.8490250110626,11.73081708351771
10,5,recognition,studied,True,STIMULI/BIG_ANIMAL/Zebra/Image_010.jpg,1764917250.7794151,True,0.3191928996396832,7.002361059188843,1764917258.842944,True,,0.2542286449175414,1.6757405556069809,1764917260.377571,1764917261.710716,True,stay,7.0,1764917272.5580952,True,1764917265.556602,0.3191928996396832,False,0.0,True,0.3191928996396832,0.2542286449175414,0.06496425472214185,1764917274.071689,0.6808071003603168,False,,1764916918.1982589,1764917622.047284,703.8490250110626,11.73081708351771
10,6,recognition,lure,False,STIMULI/FOOD/Donut/Lure_034.jpg,1764917278.360647,True,0.817966739367747,7.005117893218994,1764917286.443975,True,,0.7702302751241998,1.7314001765542713,1764917288.0002959,1764917289.408569,True,switch,7.0,1764917299.661633,True,1764917292.657909,0.7702302751241998,True,1.0,True,0.182033260632253,0.22976972487580016,0.04773646424354716,1764917301.181345,1.2702302751241998,True,1764917302.7291222,1764916918.1982589,1764917622.047284,703.8490250110626,11.73081708351771
10,7,recognition,studied,True,STIMULI/INSECT/Caterpillar/Image_056.jpg,1764917305.354292,True,0.6216157185599144,7.007122993469238,1764917313.443867,True,,0.4099318739633863,1.4667110001663217,1764917314.9826481,1764917316.2227,True,switch,7.0,1764917326.6770291,True,1764917319.660854,0.4099318739633863,True,0.0,True,0.6216157185599144,0.4099318739633863,0.21168384459652806,1764917328.194857,0.5900681260366136,False,,1764916918.1982589,1764917622.047284,703.8490250110626,11.73081708351771
10,8,recognition,lure,False,STIMULI/SMALL_OBJECT/Football/Lure_076.jpg,1764917332.5296278,True,0.8732152512259812,7.005779027938843,1764917340.611131,True,,0.7651439640329807,1.2404914071850477,1764917342.161793,1764917343.167664,True,switch,7.0,1764917353.4100978,True,1764917346.400382,0.7651439640329807,True,1.0,True,0.1267847487740188,0.23485603596701932,0.10807128719300052,1764917354.925895,1.2651439640329807,True,1764917356.457362,1764916918.1982589,1764917622.047284,703.8490250110626,11.73081708351771
10,9,recognition,studied,True,STIMULI/SMALL_ANIMAL/Frog/Image_064.jpg,1764917359.0036118,True,0.23828737015049528,7.014210224151611,1764917367.0716622,True,,0.37091052500229577,1.2678874515070093,1764917368.693299,1764917369.867637,True,stay,7.0,1764917380.375071,True,1764917373.358314,0.23828737015049528,False,0.0,True,0.23828737015049528,0.37091052500229577,0.13262315485180048,1764917381.898491,0.7617126298495047,False,,1764916918.1982589,1764917622.047284,703.8490250110626,11.73081708351771
10,10,recognition,lure,False,STIMULI/BIG_OBJECT/Bench/Lure_012.jpg,1764917387.1700668,True,0.07268439355955066,7.001979827880859,1764917395.224876,True,,0.8852985601349947,1.6155686592654452,1764917396.77102,1764917398.046324,True,switch,7.0,1764917408.278663,True,1764917401.272606,0.8852985601349947,True,1.0,True,0.9273156064404493,0.11470143986500525,0.812614166575444,1764917409.790679,1.3852985601349947,True,1764917411.317539,1764916918.1982589,1764917622.047284,703.8490250110626,11.73081708351771
